{
    "meta": {
        "profile": [
            "https://www.netzwerk-universitaetsmedizin.de/fhir/StructureDefinition/gecco-bundle"
        ]
    },
    "entry": [
        {
            "request": {
                "method": "PUT",
                "url": "Patient/4aff75a2-c6a0-40a5-abd2-6afe5532bc94"
            },
            "resource": {
                "id": "4aff75a2-c6a0-40a5-abd2-6afe5532bc94",
                "meta": {
                    "profile": [
                        "https://www.netzwerk-universitaetsmedizin.de/fhir/StructureDefinition/Patient"
                    ]
                },
                "extension": [
                    {
                        "url": "https://www.netzwerk-universitaetsmedizin.de/fhir/StructureDefinition/ethnic-group",
                        "valueCoding": {
                            "code": "315280000",
                            "display": "Asian - ethnic group (ethnic group)",
                            "system": "http://snomed.info/sct"
                        }
                    },
                    {
                        "extension": [
                            {
                                "url": "dateTimeOfDocumentation",
                                "valueDateTime": "2020-11-17T10:50:59+01:00"
                            },
                            {
                                "url": "age",
                                "valueAge": {
                                    "code": "a",
                                    "system": "http://unitsofmeasure.org",
                                    "unit": "years",
                                    "value": 98
                                }
                            }
                        ],
                        "url": "https://www.netzwerk-universitaetsmedizin.de/fhir/StructureDefinition/age"
                    }
                ],
                "birthDate": "1922-05-31",
                "identifier": [
                    {
                        "assigner": {
                            "reference": "Organization/Charit\u00e9"
                        },
                        "system": "https://www.charite.de/fhir/CodeSystem/medical-record-numbers",
                        "type": {
                            "coding": [
                                {
                                    "code": "MR",
                                    "system": "http://terminology.hl7.org/CodeSystem/v2-0203"
                                }
                            ]
                        },
                        "value": "38613015"
                    }
                ],
                "resourceType": "Patient"
            }
        },
        {
            "request": {
                "method": "PUT",
                "url": "Observation/076b02da-56c0-4f93-b37e-b3315756c2d3"
            },
            "resource": {
                "id": "076b02da-56c0-4f93-b37e-b3315756c2d3",
                "meta": {
                    "profile": [
                        "https://www.netzwerk-universitaetsmedizin.de/fhir/StructureDefinition/sex-assigned-at-birth"
                    ]
                },
                "category": [
                    {
                        "coding": [
                            {
                                "code": "social-history",
                                "display": "Social History",
                                "system": "http://terminology.hl7.org/CodeSystem/observation-category"
                            }
                        ]
                    }
                ],
                "code": {
                    "coding": [
                        {
                            "code": "76689-9",
                            "display": "Sex assigned at birth",
                            "system": "http://loinc.org"
                        }
                    ]
                },
                "effectiveDateTime": "2020-11-17T10:50:59+01:00",
                "status": "final",
                "subject": {
                    "reference": "Patient/4aff75a2-c6a0-40a5-abd2-6afe5532bc94"
                },
                "valueCodeableConcept": {
                    "coding": [
                        {
                            "code": "female",
                            "display": "Female",
                            "system": "http://hl7.org/fhir/administrative-gender"
                        }
                    ],
                    "text": "Female"
                },
                "resourceType": "Observation"
            }
        },
        {
            "request": {
                "method": "PUT",
                "url": "Observation/e2c49b7d-3540-4dfe-9c01-52bd58a8284b"
            },
            "resource": {
                "id": "e2c49b7d-3540-4dfe-9c01-52bd58a8284b",
                "meta": {
                    "profile": [
                        "https://www.netzwerk-universitaetsmedizin.de/fhir/StructureDefinition/pregnancy-status"
                    ]
                },
                "category": [
                    {
                        "coding": [
                            {
                                "code": "social-history",
                                "system": "http://terminology.hl7.org/CodeSystem/observation-category"
                            }
                        ]
                    }
                ],
                "code": {
                    "coding": [
                        {
                            "code": "82810-3",
                            "display": "Pregnancy status",
                            "system": "http://loinc.org"
                        }
                    ],
                    "text": "Pregnancy status"
                },
                "effectiveDateTime": "2020-11-17T10:50:59+01:00",
                "identifier": [
                    {
                        "assigner": {
                            "reference": "Organization/Charit\u00e9"
                        },
                        "system": "https://www.charite.de/fhir/CodeSystem/observation-identifiers",
                        "type": {
                            "coding": [
                                {
                                    "code": "OBI",
                                    "system": "http://terminology.hl7.org/CodeSystem/v2-0203"
                                }
                            ]
                        },
                        "value": "82810-3_PregnancyStatus"
                    }
                ],
                "status": "final",
                "subject": {
                    "reference": "Patient/4aff75a2-c6a0-40a5-abd2-6afe5532bc94"
                },
                "valueCodeableConcept": {
                    "coding": [
                        {
                            "code": "LA26683-5",
                            "display": "Not pregnant",
                            "system": "http://loinc.org"
                        },
                        {
                            "code": "60001007",
                            "display": "Not pregnant (finding)",
                            "system": "http://snomed.info/sct"
                        }
                    ]
                },
                "resourceType": "Observation"
            }
        },
        {
            "request": {
                "method": "PUT",
                "url": "Observation/44e70c78-b77c-4db2-a32a-71dff72e5d54"
            },
            "resource": {
                "id": "44e70c78-b77c-4db2-a32a-71dff72e5d54",
                "meta": {
                    "profile": [
                        "https://www.netzwerk-universitaetsmedizin.de/fhir/StructureDefinition/frailty-score"
                    ]
                },
                "category": [
                    {
                        "coding": [
                            {
                                "code": "survey",
                                "system": "http://terminology.hl7.org/CodeSystem/observation-category"
                            }
                        ]
                    }
                ],
                "code": {
                    "coding": [
                        {
                            "code": "763264000",
                            "display": "Canadian Study of Health and Aging Clinical Frailty Scale score",
                            "system": "http://snomed.info/sct"
                        }
                    ],
                    "text": "Frailty Scale Score"
                },
                "effectiveDateTime": "2020-11-17T10:50:59+01:00",
                "identifier": [
                    {
                        "assigner": {
                            "reference": "Organization/Charit\u00e9"
                        },
                        "system": "https://www.charite.de/fhir/CodeSystem/observation-identifiers",
                        "type": {
                            "coding": [
                                {
                                    "code": "OBI",
                                    "system": "http://terminology.hl7.org/CodeSystem/v2-0203"
                                }
                            ]
                        },
                        "value": "763264000_FrailtyScaleScore"
                    }
                ],
                "method": {
                    "coding": [
                        {
                            "code": "445414007",
                            "display": "Canadian Study of Health and Aging clinical frailty scale",
                            "system": "http://snomed.info/sct"
                        }
                    ]
                },
                "status": "final",
                "subject": {
                    "reference": "Patient/4aff75a2-c6a0-40a5-abd2-6afe5532bc94"
                },
                "valueCodeableConcept": {
                    "coding": [
                        {
                            "code": "2",
                            "display": "Well",
                            "system": "https://www.netzwerk-universitaetsmedizin.de/fhir/CodeSystem/frailty-score"
                        }
                    ]
                },
                "resourceType": "Observation"
            }
        },
        {
            "request": {
                "method": "PUT",
                "url": "Observation/ed8f7ec9-449d-44d8-9057-04a7ffbf08da"
            },
            "resource": {
                "id": "ed8f7ec9-449d-44d8-9057-04a7ffbf08da",
                "meta": {
                    "profile": [
                        "https://www.netzwerk-universitaetsmedizin.de/fhir/StructureDefinition/body-weight"
                    ]
                },
                "category": [
                    {
                        "coding": [
                            {
                                "code": "vital-signs",
                                "system": "http://terminology.hl7.org/CodeSystem/observation-category"
                            }
                        ]
                    }
                ],
                "code": {
                    "coding": [
                        {
                            "code": "29463-7",
                            "display": "Body weight",
                            "system": "http://loinc.org"
                        },
                        {
                            "code": "27113001",
                            "display": "Body weight (observable entity)",
                            "system": "http://snomed.info/sct"
                        }
                    ],
                    "text": "Body weight"
                },
                "effectiveDateTime": "2020-11-17T10:50:59+01:00",
                "identifier": [
                    {
                        "assigner": {
                            "reference": "Organization/Charit\u00e9"
                        },
                        "system": "https://www.charite.de/fhir/CodeSystem/observation-identifiers",
                        "type": {
                            "coding": [
                                {
                                    "code": "OBI",
                                    "system": "http://terminology.hl7.org/CodeSystem/v2-0203"
                                }
                            ]
                        },
                        "value": "29463-7_BodyWeight"
                    }
                ],
                "status": "final",
                "subject": {
                    "reference": "Patient/4aff75a2-c6a0-40a5-abd2-6afe5532bc94"
                },
                "valueQuantity": {
                    "code": "kg",
                    "system": "http://unitsofmeasure.org",
                    "unit": "kilogram",
                    "value": 150
                },
                "resourceType": "Observation"
            }
        },
        {
            "request": {
                "method": "PUT",
                "url": "Observation/164ee0a4-a592-41d8-a565-bdd5b94f1305"
            },
            "resource": {
                "id": "164ee0a4-a592-41d8-a565-bdd5b94f1305",
                "meta": {
                    "profile": [
                        "https://www.netzwerk-universitaetsmedizin.de/fhir/StructureDefinition/body-height"
                    ]
                },
                "category": [
                    {
                        "coding": [
                            {
                                "code": "vital-signs",
                                "system": "http://terminology.hl7.org/CodeSystem/observation-category"
                            }
                        ]
                    }
                ],
                "code": {
                    "coding": [
                        {
                            "code": "8302-2",
                            "display": "Body height",
                            "system": "http://loinc.org"
                        },
                        {
                            "code": "50373000",
                            "display": "Body height measure (observable entity)",
                            "system": "http://snomed.info/sct"
                        }
                    ],
                    "text": "Body height"
                },
                "effectiveDateTime": "2020-11-17T10:50:59+01:00",
                "identifier": [
                    {
                        "assigner": {
                            "reference": "Organization/Charit\u00e9"
                        },
                        "system": "https://www.charite.de/fhir/CodeSystem/observation-identifiers",
                        "type": {
                            "coding": [
                                {
                                    "code": "OBI",
                                    "system": "http://terminology.hl7.org/CodeSystem/v2-0203"
                                }
                            ]
                        },
                        "value": "8302-2_BodyHeight"
                    }
                ],
                "status": "final",
                "subject": {
                    "reference": "Patient/4aff75a2-c6a0-40a5-abd2-6afe5532bc94"
                },
                "valueQuantity": {
                    "code": "cm",
                    "system": "http://unitsofmeasure.org",
                    "unit": "centimeter",
                    "value": 200
                },
                "resourceType": "Observation"
            }
        },
        {
            "request": {
                "method": "POST",
                "url": "Condition"
            },
            "resource": {
                "id": "3e939859-774b-4026-aef7-e349f31d3cda",
                "meta": {
                    "profile": [
                        "https://www.netzwerk-universitaetsmedizin.de/fhir/StructureDefinition/chronic-lung-diseases"
                    ]
                },
                "category": [
                    {
                        "coding": [
                            {
                                "code": "418112009",
                                "display": "Pulmonary medicine",
                                "system": "http://snomed.info/sct"
                            }
                        ]
                    }
                ],
                "code": {
                    "coding": [
                        {
                            "code": "413839001",
                            "display": "Chronic lung disease",
                            "system": "http://snomed.info/sct"
                        }
                    ]
                },
                "recordedDate": "2020-11-17T10:50:59+01:00",
                "subject": {
                    "reference": "Patient/4aff75a2-c6a0-40a5-abd2-6afe5532bc94"
                },
                "verificationStatus": {
                    "coding": [
                        {
                            "code": "refuted",
                            "display": "Refuted",
                            "system": "http://terminology.hl7.org/CodeSystem/condition-ver-status"
                        },
                        {
                            "code": "410594000",
                            "display": "Definitely NOT present (qualifier value)",
                            "system": "http://snomed.info/sct"
                        }
                    ]
                },
                "resourceType": "Condition"
            }
        },
        {
            "request": {
                "method": "POST",
                "url": "Condition"
            },
            "resource": {
                "id": "b5ca4a1e-dd22-4ebe-94b0-27f6d7fbcd06",
                "meta": {
                    "profile": [
                        "https://www.netzwerk-universitaetsmedizin.de/fhir/StructureDefinition/cardiovascular-diseases"
                    ]
                },
                "extension": [
                    {
                        "url": "https://www.netzwerk-universitaetsmedizin.de/fhir/StructureDefinition/uncertainty-of-presence",
                        "valueCodeableConcept": {
                            "coding": [
                                {
                                    "code": "261665006",
                                    "display": "Unknown (qualifier value)",
                                    "system": "http://snomed.info/sct"
                                }
                            ],
                            "text": "Presence of condition is unknown."
                        }
                    }
                ],
                "category": [
                    {
                        "coding": [
                            {
                                "code": "722414000",
                                "display": "Vascular medicine",
                                "system": "http://snomed.info/sct"
                            }
                        ]
                    }
                ],
                "code": {
                    "coding": [
                        {
                            "code": "49601007",
                            "display": "Cardiovascular disease",
                            "system": "http://snomed.info/sct"
                        }
                    ]
                },
                "recordedDate": "2020-11-17T10:50:59+01:00",
                "subject": {
                    "reference": "Patient/4aff75a2-c6a0-40a5-abd2-6afe5532bc94"
                },
                "resourceType": "Condition"
            }
        },
        {
            "request": {
                "method": "POST",
                "url": "Condition"
            },
            "resource": {
                "id": "6ba163c4-ccbc-4121-9b9f-817766731094",
                "meta": {
                    "profile": [
                        "https://www.netzwerk-universitaetsmedizin.de/fhir/StructureDefinition/chronic-liver-diseases"
                    ]
                },
                "category": [
                    {
                        "coding": [
                            {
                                "code": "408472002",
                                "display": "Hepatology",
                                "system": "http://snomed.info/sct"
                            }
                        ]
                    }
                ],
                "clinicalStatus": {
                    "coding": [
                        {
                            "code": "active",
                            "display": "Active",
                            "system": "http://terminology.hl7.org/CodeSystem/condition-clinical"
                        }
                    ]
                },
                "code": {
                    "coding": [
                        {
                            "code": "328383001",
                            "display": "Chronic liver disease",
                            "system": "http://snomed.info/sct"
                        }
                    ]
                },
                "recordedDate": "2020-11-17T10:50:59+01:00",
                "subject": {
                    "reference": "Patient/4aff75a2-c6a0-40a5-abd2-6afe5532bc94"
                },
                "verificationStatus": {
                    "coding": [
                        {
                            "code": "confirmed",
                            "display": "Confirmed",
                            "system": "http://terminology.hl7.org/CodeSystem/condition-ver-status"
                        },
                        {
                            "code": "410605003",
                            "display": "Confirmed present (qualifier value)",
                            "system": "http://snomed.info/sct"
                        }
                    ]
                },
                "resourceType": "Condition"
            }
        },
        {
            "request": {
                "method": "POST",
                "url": "Condition"
            },
            "resource": {
                "id": "6815e0b0-ab06-416c-8ade-655cfcb365be",
                "meta": {
                    "profile": [
                        "https://www.netzwerk-universitaetsmedizin.de/fhir/StructureDefinition/chronic-liver-diseases"
                    ]
                },
                "category": [
                    {
                        "coding": [
                            {
                                "code": "408472002",
                                "display": "Hepatology",
                                "system": "http://snomed.info/sct"
                            }
                        ]
                    }
                ],
                "clinicalStatus": {
                    "coding": [
                        {
                            "code": "active",
                            "display": "Active",
                            "system": "http://terminology.hl7.org/CodeSystem/condition-clinical"
                        }
                    ]
                },
                "code": {
                    "coding": [
                        {
                            "code": "197321007",
                            "display": "Steatosis of liver",
                            "system": "http://snomed.info/sct"
                        }
                    ]
                },
                "recordedDate": "2020-11-17T10:50:59+01:00",
                "subject": {
                    "reference": "Patient/4aff75a2-c6a0-40a5-abd2-6afe5532bc94"
                },
                "verificationStatus": {
                    "coding": [
                        {
                            "code": "confirmed",
                            "display": "Confirmed",
                            "system": "http://terminology.hl7.org/CodeSystem/condition-ver-status"
                        },
                        {
                            "code": "410605003",
                            "display": "Confirmed present (qualifier value)",
                            "system": "http://snomed.info/sct"
                        }
                    ]
                },
                "resourceType": "Condition"
            }
        },
        {
            "request": {
                "method": "POST",
                "url": "Condition"
            },
            "resource": {
                "id": "9cde85e1-4b3e-4c53-b830-08b62e6c7791",
                "meta": {
                    "profile": [
                        "https://www.netzwerk-universitaetsmedizin.de/fhir/StructureDefinition/chronic-liver-diseases"
                    ]
                },
                "category": [
                    {
                        "coding": [
                            {
                                "code": "408472002",
                                "display": "Hepatology",
                                "system": "http://snomed.info/sct"
                            }
                        ]
                    }
                ],
                "code": {
                    "coding": [
                        {
                            "code": "19943007",
                            "display": "Cirrhosis of liver",
                            "system": "http://snomed.info/sct"
                        }
                    ]
                },
                "recordedDate": "2020-11-17T10:50:59+01:00",
                "subject": {
                    "reference": "Patient/4aff75a2-c6a0-40a5-abd2-6afe5532bc94"
                },
                "verificationStatus": {
                    "coding": [
                        {
                            "code": "refuted",
                            "display": "Refuted",
                            "system": "http://terminology.hl7.org/CodeSystem/condition-ver-status"
                        },
                        {
                            "code": "410594000",
                            "display": "Definitely NOT present (qualifier value)",
                            "system": "http://snomed.info/sct"
                        }
                    ]
                },
                "resourceType": "Condition"
            }
        },
        {
            "request": {
                "method": "POST",
                "url": "Condition"
            },
            "resource": {
                "id": "d4754145-03f2-49cb-aa32-3501c0333972",
                "meta": {
                    "profile": [
                        "https://www.netzwerk-universitaetsmedizin.de/fhir/StructureDefinition/chronic-liver-diseases"
                    ]
                },
                "category": [
                    {
                        "coding": [
                            {
                                "code": "408472002",
                                "display": "Hepatology",
                                "system": "http://snomed.info/sct"
                            }
                        ]
                    }
                ],
                "code": {
                    "coding": [
                        {
                            "code": "10295004",
                            "display": "Chronic viral hepatitis",
                            "system": "http://snomed.info/sct"
                        }
                    ]
                },
                "recordedDate": "2020-11-17T10:50:59+01:00",
                "subject": {
                    "reference": "Patient/4aff75a2-c6a0-40a5-abd2-6afe5532bc94"
                },
                "verificationStatus": {
                    "coding": [
                        {
                            "code": "refuted",
                            "display": "Refuted",
                            "system": "http://terminology.hl7.org/CodeSystem/condition-ver-status"
                        },
                        {
                            "code": "410594000",
                            "display": "Definitely NOT present (qualifier value)",
                            "system": "http://snomed.info/sct"
                        }
                    ]
                },
                "resourceType": "Condition"
            }
        },
        {
            "request": {
                "method": "POST",
                "url": "Condition"
            },
            "resource": {
                "id": "598a1ef6-1341-4ac4-87f9-14cd569f6f14",
                "meta": {
                    "profile": [
                        "https://www.netzwerk-universitaetsmedizin.de/fhir/StructureDefinition/chronic-liver-diseases"
                    ]
                },
                "category": [
                    {
                        "coding": [
                            {
                                "code": "408472002",
                                "display": "Hepatology",
                                "system": "http://snomed.info/sct"
                            }
                        ]
                    }
                ],
                "clinicalStatus": {
                    "coding": [
                        {
                            "code": "active",
                            "display": "Active",
                            "system": "http://terminology.hl7.org/CodeSystem/condition-clinical"
                        }
                    ]
                },
                "code": {
                    "coding": [
                        {
                            "code": "235890007",
                            "display": "Autoimmune liver disease",
                            "system": "http://snomed.info/sct"
                        }
                    ]
                },
                "recordedDate": "2020-11-17T10:50:59+01:00",
                "subject": {
                    "reference": "Patient/4aff75a2-c6a0-40a5-abd2-6afe5532bc94"
                },
                "verificationStatus": {
                    "coding": [
                        {
                            "code": "confirmed",
                            "display": "Confirmed",
                            "system": "http://terminology.hl7.org/CodeSystem/condition-ver-status"
                        },
                        {
                            "code": "410605003",
                            "display": "Confirmed present (qualifier value)",
                            "system": "http://snomed.info/sct"
                        }
                    ]
                },
                "resourceType": "Condition"
            }
        },
        {
            "request": {
                "method": "POST",
                "url": "Condition"
            },
            "resource": {
                "id": "2fe6f69d-bd0b-4e69-b84d-ae8483dac99f",
                "meta": {
                    "profile": [
                        "https://www.netzwerk-universitaetsmedizin.de/fhir/StructureDefinition/rheumatological-immunological-diseases"
                    ]
                },
                "extension": [
                    {
                        "url": "https://www.netzwerk-universitaetsmedizin.de/fhir/StructureDefinition/uncertainty-of-presence",
                        "valueCodeableConcept": {
                            "coding": [
                                {
                                    "code": "261665006",
                                    "display": "Unknown (qualifier value)",
                                    "system": "http://snomed.info/sct"
                                }
                            ],
                            "text": "Presence of condition is unknown."
                        }
                    }
                ],
                "category": [
                    {
                        "coding": [
                            {
                                "code": "394810000",
                                "display": "Rheumatology",
                                "system": "http://snomed.info/sct"
                            },
                            {
                                "code": "408480009",
                                "display": "Clinical immunology",
                                "system": "http://snomed.info/sct"
                            }
                        ]
                    }
                ],
                "code": {
                    "coding": [
                        {
                            "code": "396332003",
                            "display": "Rheumatism",
                            "system": "http://snomed.info/sct"
                        }
                    ]
                },
                "recordedDate": "2020-11-17T10:50:59+01:00",
                "subject": {
                    "reference": "Patient/4aff75a2-c6a0-40a5-abd2-6afe5532bc94"
                },
                "resourceType": "Condition"
            }
        },
        {
            "request": {
                "method": "POST",
                "url": "Condition"
            },
            "resource": {
                "id": "0e0e801b-c47f-4a6c-9050-5e4f632fc1e7",
                "meta": {
                    "profile": [
                        "https://www.netzwerk-universitaetsmedizin.de/fhir/StructureDefinition/human-immunodeficiency-virus-infection"
                    ]
                },
                "extension": [
                    {
                        "url": "https://www.netzwerk-universitaetsmedizin.de/fhir/StructureDefinition/uncertainty-of-presence",
                        "valueCodeableConcept": {
                            "coding": [
                                {
                                    "code": "261665006",
                                    "display": "Unknown (qualifier value)",
                                    "system": "http://snomed.info/sct"
                                }
                            ],
                            "text": "Presence of condition is unknown."
                        }
                    }
                ],
                "category": [
                    {
                        "coding": [
                            {
                                "code": "394807007",
                                "display": "Infectious diseases (specialty)",
                                "system": "http://snomed.info/sct"
                            }
                        ]
                    }
                ],
                "code": {
                    "coding": [
                        {
                            "code": "86406008",
                            "display": "Human immunodeficiency virus infection",
                            "system": "http://snomed.info/sct"
                        }
                    ]
                },
                "recordedDate": "2020-11-17T10:50:59+01:00",
                "subject": {
                    "reference": "Patient/4aff75a2-c6a0-40a5-abd2-6afe5532bc94"
                },
                "resourceType": "Condition"
            }
        },
        {
            "request": {
                "method": "POST",
                "url": "Condition"
            },
            "resource": {
                "id": "eac4fd4d-3cf1-48f1-b47b-b0fcf5c02777",
                "meta": {
                    "profile": [
                        "https://www.netzwerk-universitaetsmedizin.de/fhir/StructureDefinition/organ-recipient"
                    ]
                },
                "extension": [
                    {
                        "url": "https://www.netzwerk-universitaetsmedizin.de/fhir/StructureDefinition/uncertainty-of-presence",
                        "valueCodeableConcept": {
                            "coding": [
                                {
                                    "code": "261665006",
                                    "display": "Unknown (qualifier value)",
                                    "system": "http://snomed.info/sct"
                                }
                            ],
                            "text": "Presence of condition is unknown."
                        }
                    }
                ],
                "category": [
                    {
                        "coding": [
                            {
                                "code": "788415003",
                                "display": "Transplant medicine",
                                "system": "http://snomed.info/sct"
                            }
                        ]
                    }
                ],
                "code": {
                    "coding": [
                        {
                            "code": "161663000",
                            "display": "History of being a tissue or organ recipient",
                            "system": "http://snomed.info/sct"
                        }
                    ]
                },
                "recordedDate": "2020-11-17T10:50:59+01:00",
                "subject": {
                    "reference": "Patient/4aff75a2-c6a0-40a5-abd2-6afe5532bc94"
                },
                "resourceType": "Condition"
            }
        },
        {
            "request": {
                "method": "POST",
                "url": "Condition"
            },
            "resource": {
                "id": "fe9ee7ee-5fb5-46d7-8548-d3d0009b8374",
                "meta": {
                    "profile": [
                        "https://www.netzwerk-universitaetsmedizin.de/fhir/StructureDefinition/diabetes-mellitus"
                    ]
                },
                "category": [
                    {
                        "coding": [
                            {
                                "code": "408475000",
                                "display": "Diabetic medicine",
                                "system": "http://snomed.info/sct"
                            }
                        ]
                    }
                ],
                "clinicalStatus": {
                    "coding": [
                        {
                            "code": "active",
                            "display": "Active",
                            "system": "http://terminology.hl7.org/CodeSystem/condition-clinical"
                        }
                    ]
                },
                "code": {
                    "coding": [
                        {
                            "code": "73211009",
                            "display": "Diabetes mellitus",
                            "system": "http://snomed.info/sct"
                        }
                    ]
                },
                "recordedDate": "2020-11-17T10:50:59+01:00",
                "subject": {
                    "reference": "Patient/4aff75a2-c6a0-40a5-abd2-6afe5532bc94"
                },
                "verificationStatus": {
                    "coding": [
                        {
                            "code": "confirmed",
                            "display": "Confirmed",
                            "system": "http://terminology.hl7.org/CodeSystem/condition-ver-status"
                        },
                        {
                            "code": "410605003",
                            "display": "Confirmed present (qualifier value)",
                            "system": "http://snomed.info/sct"
                        }
                    ]
                },
                "resourceType": "Condition"
            }
        },
        {
            "request": {
                "method": "POST",
                "url": "Condition"
            },
            "resource": {
                "id": "c9abda66-0c52-40ad-96fc-6b890c3d7c2e",
                "meta": {
                    "profile": [
                        "https://www.netzwerk-universitaetsmedizin.de/fhir/StructureDefinition/diabetes-mellitus"
                    ]
                },
                "category": [
                    {
                        "coding": [
                            {
                                "code": "408475000",
                                "display": "Diabetic medicine",
                                "system": "http://snomed.info/sct"
                            }
                        ]
                    }
                ],
                "clinicalStatus": {
                    "coding": [
                        {
                            "code": "active",
                            "display": "Active",
                            "system": "http://terminology.hl7.org/CodeSystem/condition-clinical"
                        }
                    ]
                },
                "code": {
                    "coding": [
                        {
                            "code": "237599002",
                            "display": "Insulin treated type 2 diabetes mellitus",
                            "system": "http://snomed.info/sct"
                        }
                    ]
                },
                "recordedDate": "2020-11-17T10:50:59+01:00",
                "subject": {
                    "reference": "Patient/4aff75a2-c6a0-40a5-abd2-6afe5532bc94"
                },
                "verificationStatus": {
                    "coding": [
                        {
                            "code": "confirmed",
                            "display": "Confirmed",
                            "system": "http://terminology.hl7.org/CodeSystem/condition-ver-status"
                        },
                        {
                            "code": "410605003",
                            "display": "Confirmed present (qualifier value)",
                            "system": "http://snomed.info/sct"
                        }
                    ]
                },
                "resourceType": "Condition"
            }
        },
        {
            "request": {
                "method": "POST",
                "url": "Condition"
            },
            "resource": {
                "id": "37f70eb9-ca86-457a-a65e-3723772f8d8d",
                "meta": {
                    "profile": [
                        "https://www.netzwerk-universitaetsmedizin.de/fhir/StructureDefinition/malignant-neoplastic-disease"
                    ]
                },
                "category": [
                    {
                        "coding": [
                            {
                                "code": "394593009",
                                "display": "Medical oncology (qualifier value)",
                                "system": "http://snomed.info/sct"
                            }
                        ]
                    }
                ],
                "clinicalStatus": {
                    "coding": [
                        {
                            "code": "remission",
                            "display": "Remission",
                            "system": "http://terminology.hl7.org/CodeSystem/condition-clinical"
                        }
                    ]
                },
                "code": {
                    "coding": [
                        {
                            "code": "363346000",
                            "display": "Malignant neoplastic disease",
                            "system": "http://snomed.info/sct"
                        }
                    ]
                },
                "recordedDate": "2020-11-17T10:50:59+01:00",
                "subject": {
                    "reference": "Patient/4aff75a2-c6a0-40a5-abd2-6afe5532bc94"
                },
                "verificationStatus": {
                    "coding": [
                        {
                            "code": "confirmed",
                            "display": "Confirmed",
                            "system": "http://terminology.hl7.org/CodeSystem/condition-ver-status"
                        },
                        {
                            "code": "410605003",
                            "display": "Confirmed present (qualifier value)",
                            "system": "http://snomed.info/sct"
                        }
                    ]
                },
                "resourceType": "Condition"
            }
        },
        {
            "request": {
                "method": "PUT",
                "url": "Observation/97622384-b178-4c15-b132-5a1ea9238b4a"
            },
            "resource": {
                "id": "97622384-b178-4c15-b132-5a1ea9238b4a",
                "meta": {
                    "profile": [
                        "https://www.netzwerk-universitaetsmedizin.de/fhir/StructureDefinition/smoking-status"
                    ]
                },
                "category": [
                    {
                        "coding": [
                            {
                                "code": "social-history",
                                "display": "Social History",
                                "system": "http://terminology.hl7.org/CodeSystem/observation-category"
                            }
                        ]
                    }
                ],
                "code": {
                    "coding": [
                        {
                            "code": "72166-2",
                            "display": "Tobacco smoking status",
                            "system": "http://loinc.org"
                        }
                    ]
                },
                "effectiveDateTime": "2020-11-17T10:50:59+01:00",
                "status": "final",
                "subject": {
                    "reference": "Patient/4aff75a2-c6a0-40a5-abd2-6afe5532bc94"
                },
                "valueCodeableConcept": {
                    "coding": [
                        {
                            "code": "LA15920-4",
                            "display": "Former smoker",
                            "system": "http://loinc.org"
                        }
                    ],
                    "text": "Patient is former smoker"
                },
                "resourceType": "Observation"
            }
        },
        {
            "request": {
                "method": "POST",
                "url": "Condition"
            },
            "resource": {
                "id": "8ac4a670-0a62-442f-af56-1bd6b793b92e",
                "meta": {
                    "profile": [
                        "https://www.netzwerk-universitaetsmedizin.de/fhir/StructureDefinition/chronic-neurological-mental-diseases"
                    ]
                },
                "category": [
                    {
                        "coding": [
                            {
                                "code": "394591006",
                                "display": "Neurology",
                                "system": "http://snomed.info/sct"
                            },
                            {
                                "code": "394587001",
                                "display": "Psychiatry",
                                "system": "http://snomed.info/sct"
                            }
                        ]
                    }
                ],
                "code": {
                    "coding": [
                        {
                            "code": "74732009",
                            "display": "Mental disorder",
                            "system": "http://snomed.info/sct"
                        }
                    ]
                },
                "recordedDate": "2020-11-17T10:50:59+01:00",
                "subject": {
                    "reference": "Patient/4aff75a2-c6a0-40a5-abd2-6afe5532bc94"
                },
                "verificationStatus": {
                    "coding": [
                        {
                            "code": "refuted",
                            "display": "Refuted",
                            "system": "http://terminology.hl7.org/CodeSystem/condition-ver-status"
                        },
                        {
                            "code": "410594000",
                            "display": "Definitely NOT present (qualifier value)",
                            "system": "http://snomed.info/sct"
                        }
                    ]
                },
                "resourceType": "Condition"
            }
        },
        {
            "request": {
                "method": "POST",
                "url": "Condition"
            },
            "resource": {
                "id": "a8c5588b-b5e2-4630-bfee-14a1e3dd7bec",
                "meta": {
                    "profile": [
                        "https://www.netzwerk-universitaetsmedizin.de/fhir/StructureDefinition/chronic-neurological-mental-diseases"
                    ]
                },
                "category": [
                    {
                        "coding": [
                            {
                                "code": "394591006",
                                "display": "Neurology",
                                "system": "http://snomed.info/sct"
                            },
                            {
                                "code": "394587001",
                                "display": "Psychiatry",
                                "system": "http://snomed.info/sct"
                            }
                        ]
                    }
                ],
                "clinicalStatus": {
                    "coding": [
                        {
                            "code": "active",
                            "display": "Active",
                            "system": "http://terminology.hl7.org/CodeSystem/condition-clinical"
                        }
                    ]
                },
                "code": {
                    "coding": [
                        {
                            "code": "128283000",
                            "display": "Chronic nervous system disorder",
                            "system": "http://snomed.info/sct"
                        }
                    ]
                },
                "recordedDate": "2020-11-17T10:50:59+01:00",
                "subject": {
                    "reference": "Patient/4aff75a2-c6a0-40a5-abd2-6afe5532bc94"
                },
                "verificationStatus": {
                    "coding": [
                        {
                            "code": "confirmed",
                            "display": "Confirmed",
                            "system": "http://terminology.hl7.org/CodeSystem/condition-ver-status"
                        },
                        {
                            "code": "410605003",
                            "display": "Confirmed present (qualifier value)",
                            "system": "http://snomed.info/sct"
                        }
                    ]
                },
                "resourceType": "Condition"
            }
        },
        {
            "request": {
                "method": "POST",
                "url": "Condition"
            },
            "resource": {
                "id": "76e835e9-ac91-401d-8739-935e6544066a",
                "meta": {
                    "profile": [
                        "https://www.netzwerk-universitaetsmedizin.de/fhir/StructureDefinition/chronic-neurological-mental-diseases"
                    ]
                },
                "category": [
                    {
                        "coding": [
                            {
                                "code": "394591006",
                                "display": "Neurology",
                                "system": "http://snomed.info/sct"
                            },
                            {
                                "code": "394587001",
                                "display": "Psychiatry",
                                "system": "http://snomed.info/sct"
                            }
                        ]
                    }
                ],
                "clinicalStatus": {
                    "coding": [
                        {
                            "code": "active",
                            "display": "Active",
                            "system": "http://terminology.hl7.org/CodeSystem/condition-clinical"
                        }
                    ]
                },
                "code": {
                    "coding": [
                        {
                            "code": "49049000",
                            "display": "Parkinson's disease",
                            "system": "http://snomed.info/sct"
                        }
                    ]
                },
                "recordedDate": "2020-11-17T10:50:59+01:00",
                "subject": {
                    "reference": "Patient/4aff75a2-c6a0-40a5-abd2-6afe5532bc94"
                },
                "verificationStatus": {
                    "coding": [
                        {
                            "code": "confirmed",
                            "display": "Confirmed",
                            "system": "http://terminology.hl7.org/CodeSystem/condition-ver-status"
                        },
                        {
                            "code": "410605003",
                            "display": "Confirmed present (qualifier value)",
                            "system": "http://snomed.info/sct"
                        }
                    ]
                },
                "resourceType": "Condition"
            }
        },
        {
            "request": {
                "method": "POST",
                "url": "Condition"
            },
            "resource": {
                "id": "1c8a0575-f381-4cb6-af66-88f3578b4856",
                "meta": {
                    "profile": [
                        "https://www.netzwerk-universitaetsmedizin.de/fhir/StructureDefinition/chronic-neurological-mental-diseases"
                    ]
                },
                "category": [
                    {
                        "coding": [
                            {
                                "code": "394591006",
                                "display": "Neurology",
                                "system": "http://snomed.info/sct"
                            },
                            {
                                "code": "394587001",
                                "display": "Psychiatry",
                                "system": "http://snomed.info/sct"
                            }
                        ]
                    }
                ],
                "clinicalStatus": {
                    "coding": [
                        {
                            "code": "active",
                            "display": "Active",
                            "system": "http://terminology.hl7.org/CodeSystem/condition-clinical"
                        }
                    ]
                },
                "code": {
                    "coding": [
                        {
                            "code": "52448006",
                            "display": "Dementia",
                            "system": "http://snomed.info/sct"
                        }
                    ]
                },
                "recordedDate": "2020-11-17T10:50:59+01:00",
                "subject": {
                    "reference": "Patient/4aff75a2-c6a0-40a5-abd2-6afe5532bc94"
                },
                "verificationStatus": {
                    "coding": [
                        {
                            "code": "confirmed",
                            "display": "Confirmed",
                            "system": "http://terminology.hl7.org/CodeSystem/condition-ver-status"
                        },
                        {
                            "code": "410605003",
                            "display": "Confirmed present (qualifier value)",
                            "system": "http://snomed.info/sct"
                        }
                    ]
                },
                "resourceType": "Condition"
            }
        },
        {
            "request": {
                "method": "POST",
                "url": "Condition"
            },
            "resource": {
                "id": "50165b55-fd76-4924-82ca-ad6b56c7b716",
                "meta": {
                    "profile": [
                        "https://www.netzwerk-universitaetsmedizin.de/fhir/StructureDefinition/chronic-neurological-mental-diseases"
                    ]
                },
                "category": [
                    {
                        "coding": [
                            {
                                "code": "394591006",
                                "display": "Neurology",
                                "system": "http://snomed.info/sct"
                            },
                            {
                                "code": "394587001",
                                "display": "Psychiatry",
                                "system": "http://snomed.info/sct"
                            }
                        ]
                    }
                ],
                "code": {
                    "coding": [
                        {
                            "code": "24700007",
                            "display": "Multiple sclerosis",
                            "system": "http://snomed.info/sct"
                        }
                    ]
                },
                "recordedDate": "2020-11-17T10:50:59+01:00",
                "subject": {
                    "reference": "Patient/4aff75a2-c6a0-40a5-abd2-6afe5532bc94"
                },
                "verificationStatus": {
                    "coding": [
                        {
                            "code": "refuted",
                            "display": "Refuted",
                            "system": "http://terminology.hl7.org/CodeSystem/condition-ver-status"
                        },
                        {
                            "code": "410594000",
                            "display": "Definitely NOT present (qualifier value)",
                            "system": "http://snomed.info/sct"
                        }
                    ]
                },
                "resourceType": "Condition"
            }
        },
        {
            "request": {
                "method": "POST",
                "url": "Condition"
            },
            "resource": {
                "id": "97610b64-133a-46d1-b10e-76238b514065",
                "meta": {
                    "profile": [
                        "https://www.netzwerk-universitaetsmedizin.de/fhir/StructureDefinition/chronic-neurological-mental-diseases"
                    ]
                },
                "category": [
                    {
                        "coding": [
                            {
                                "code": "394591006",
                                "display": "Neurology",
                                "system": "http://snomed.info/sct"
                            },
                            {
                                "code": "394587001",
                                "display": "Psychiatry",
                                "system": "http://snomed.info/sct"
                            }
                        ]
                    }
                ],
                "clinicalStatus": {
                    "coding": [
                        {
                            "code": "active",
                            "display": "Active",
                            "system": "http://terminology.hl7.org/CodeSystem/condition-clinical"
                        }
                    ]
                },
                "code": {
                    "coding": [
                        {
                            "code": "257277002",
                            "display": "Combined disorder of muscle AND peripheral nerve",
                            "system": "http://snomed.info/sct"
                        }
                    ]
                },
                "recordedDate": "2020-11-17T10:50:59+01:00",
                "subject": {
                    "reference": "Patient/4aff75a2-c6a0-40a5-abd2-6afe5532bc94"
                },
                "verificationStatus": {
                    "coding": [
                        {
                            "code": "confirmed",
                            "display": "Confirmed",
                            "system": "http://terminology.hl7.org/CodeSystem/condition-ver-status"
                        },
                        {
                            "code": "410605003",
                            "display": "Confirmed present (qualifier value)",
                            "system": "http://snomed.info/sct"
                        }
                    ]
                },
                "resourceType": "Condition"
            }
        },
        {
            "request": {
                "method": "POST",
                "url": "Condition"
            },
            "resource": {
                "id": "36789ee0-ce40-4c53-b677-7b09e08bc1d2",
                "meta": {
                    "profile": [
                        "https://www.netzwerk-universitaetsmedizin.de/fhir/StructureDefinition/chronic-neurological-mental-diseases"
                    ]
                },
                "category": [
                    {
                        "coding": [
                            {
                                "code": "394591006",
                                "display": "Neurology",
                                "system": "http://snomed.info/sct"
                            },
                            {
                                "code": "394587001",
                                "display": "Psychiatry",
                                "system": "http://snomed.info/sct"
                            }
                        ]
                    }
                ],
                "clinicalStatus": {
                    "coding": [
                        {
                            "code": "active",
                            "display": "Active",
                            "system": "http://terminology.hl7.org/CodeSystem/condition-clinical"
                        }
                    ]
                },
                "code": {
                    "coding": [
                        {
                            "code": "84757009",
                            "display": "Epilepsy",
                            "system": "http://snomed.info/sct"
                        }
                    ]
                },
                "recordedDate": "2020-11-17T10:50:59+01:00",
                "subject": {
                    "reference": "Patient/4aff75a2-c6a0-40a5-abd2-6afe5532bc94"
                },
                "verificationStatus": {
                    "coding": [
                        {
                            "code": "confirmed",
                            "display": "Confirmed",
                            "system": "http://terminology.hl7.org/CodeSystem/condition-ver-status"
                        },
                        {
                            "code": "410605003",
                            "display": "Confirmed present (qualifier value)",
                            "system": "http://snomed.info/sct"
                        }
                    ]
                },
                "resourceType": "Condition"
            }
        },
        {
            "request": {
                "method": "POST",
                "url": "Condition"
            },
            "resource": {
                "id": "866df8b3-748c-4d17-a6ee-a7a704af5243",
                "meta": {
                    "profile": [
                        "https://www.netzwerk-universitaetsmedizin.de/fhir/StructureDefinition/chronic-neurological-mental-diseases"
                    ]
                },
                "category": [
                    {
                        "coding": [
                            {
                                "code": "394591006",
                                "display": "Neurology",
                                "system": "http://snomed.info/sct"
                            },
                            {
                                "code": "394587001",
                                "display": "Psychiatry",
                                "system": "http://snomed.info/sct"
                            }
                        ]
                    }
                ],
                "code": {
                    "coding": [
                        {
                            "code": "37796009",
                            "display": "Migraine",
                            "system": "http://snomed.info/sct"
                        }
                    ]
                },
                "recordedDate": "2020-11-17T10:50:59+01:00",
                "subject": {
                    "reference": "Patient/4aff75a2-c6a0-40a5-abd2-6afe5532bc94"
                },
                "verificationStatus": {
                    "coding": [
                        {
                            "code": "refuted",
                            "display": "Refuted",
                            "system": "http://terminology.hl7.org/CodeSystem/condition-ver-status"
                        },
                        {
                            "code": "410594000",
                            "display": "Definitely NOT present (qualifier value)",
                            "system": "http://snomed.info/sct"
                        }
                    ]
                },
                "resourceType": "Condition"
            }
        },
        {
            "request": {
                "method": "POST",
                "url": "Condition"
            },
            "resource": {
                "id": "a53c168c-06dc-4c20-8f5b-25efa2c4bf18",
                "meta": {
                    "profile": [
                        "https://www.netzwerk-universitaetsmedizin.de/fhir/StructureDefinition/chronic-neurological-mental-diseases"
                    ]
                },
                "category": [
                    {
                        "coding": [
                            {
                                "code": "394591006",
                                "display": "Neurology",
                                "system": "http://snomed.info/sct"
                            },
                            {
                                "code": "394587001",
                                "display": "Psychiatry",
                                "system": "http://snomed.info/sct"
                            }
                        ]
                    }
                ],
                "code": {
                    "coding": [
                        {
                            "code": "440140008",
                            "display": "History of cerebrovascular accident with residual deficit",
                            "system": "http://snomed.info/sct"
                        }
                    ]
                },
                "recordedDate": "2020-11-17T10:50:59+01:00",
                "subject": {
                    "reference": "Patient/4aff75a2-c6a0-40a5-abd2-6afe5532bc94"
                },
                "verificationStatus": {
                    "coding": [
                        {
                            "code": "refuted",
                            "display": "Refuted",
                            "system": "http://terminology.hl7.org/CodeSystem/condition-ver-status"
                        },
                        {
                            "code": "410594000",
                            "display": "Definitely NOT present (qualifier value)",
                            "system": "http://snomed.info/sct"
                        }
                    ]
                },
                "resourceType": "Condition"
            }
        },
        {
            "request": {
                "method": "POST",
                "url": "Condition"
            },
            "resource": {
                "id": "5870d7f4-2740-4950-aa8e-5104a5047aab",
                "meta": {
                    "profile": [
                        "https://www.netzwerk-universitaetsmedizin.de/fhir/StructureDefinition/chronic-neurological-mental-diseases"
                    ]
                },
                "extension": [
                    {
                        "url": "https://www.netzwerk-universitaetsmedizin.de/fhir/StructureDefinition/uncertainty-of-presence",
                        "valueCodeableConcept": {
                            "coding": [
                                {
                                    "code": "261665006",
                                    "display": "Unknown (qualifier value)",
                                    "system": "http://snomed.info/sct"
                                }
                            ],
                            "text": "Presence of condition is unknown."
                        }
                    }
                ],
                "category": [
                    {
                        "coding": [
                            {
                                "code": "394591006",
                                "display": "Neurology",
                                "system": "http://snomed.info/sct"
                            },
                            {
                                "code": "394587001",
                                "display": "Psychiatry",
                                "system": "http://snomed.info/sct"
                            }
                        ]
                    }
                ],
                "code": {
                    "coding": [
                        {
                            "code": "429993008",
                            "display": "History of cerebrovascular accident without residual deficits",
                            "system": "http://snomed.info/sct"
                        }
                    ]
                },
                "recordedDate": "2020-11-17T10:50:59+01:00",
                "subject": {
                    "reference": "Patient/4aff75a2-c6a0-40a5-abd2-6afe5532bc94"
                },
                "resourceType": "Condition"
            }
        },
        {
            "request": {
                "method": "POST",
                "url": "Procedure"
            },
            "resource": {
                "id": "17903453-3352-4e49-b523-933ba2f5a2f4",
                "meta": {
                    "profile": [
                        "https://www.netzwerk-universitaetsmedizin.de/fhir/StructureDefinition/respiratory-therapies"
                    ]
                },
                "category": {
                    "coding": [
                        {
                            "code": "277132007",
                            "display": "Therapeutic procedure",
                            "system": "http://snomed.info/sct"
                        }
                    ]
                },
                "code": {
                    "coding": [
                        {
                            "code": "53950000",
                            "display": "Respiratory therapy",
                            "system": "http://snomed.info/sct"
                        }
                    ]
                },
                "performedDateTime": "2020-11-17T10:50:59+01:00",
                "status": "in-progress",
                "subject": {
                    "reference": "Patient/4aff75a2-c6a0-40a5-abd2-6afe5532bc94"
                },
                "resourceType": "Procedure"
            }
        },
        {
            "request": {
                "method": "POST",
                "url": "Condition"
            },
            "resource": {
                "id": "a8f37b1e-baa5-4361-9357-aa0700e15f11",
                "meta": {
                    "profile": [
                        "https://www.netzwerk-universitaetsmedizin.de/fhir/StructureDefinition/chronic-kidney-diseases"
                    ]
                },
                "category": [
                    {
                        "coding": [
                            {
                                "code": "394589003",
                                "display": "Nephrology (qualifier value)",
                                "system": "http://snomed.info/sct"
                            }
                        ]
                    }
                ],
                "code": {
                    "coding": [
                        {
                            "code": "709044004",
                            "display": "Chronic kidney disease (disorder)",
                            "system": "http://snomed.info/sct"
                        }
                    ]
                },
                "recordedDate": "2020-11-17T10:50:59+01:00",
                "subject": {
                    "reference": "Patient/4aff75a2-c6a0-40a5-abd2-6afe5532bc94"
                },
                "verificationStatus": {
                    "coding": [
                        {
                            "code": "refuted",
                            "display": "Refuted",
                            "system": "http://terminology.hl7.org/CodeSystem/condition-ver-status"
                        },
                        {
                            "code": "410594000",
                            "display": "Definitely NOT present (qualifier value)",
                            "system": "http://snomed.info/sct"
                        }
                    ]
                },
                "resourceType": "Condition"
            }
        },
        {
            "request": {
                "method": "PUT",
                "url": "Observation/802b038f-9044-48c6-b700-70705a420f99"
            },
            "resource": {
                "id": "802b038f-9044-48c6-b700-70705a420f99",
                "meta": {
                    "profile": [
                        "https://www.netzwerk-universitaetsmedizin.de/fhir/StructureDefinition/history-of-travel"
                    ]
                },
                "category": [
                    {
                        "coding": [
                            {
                                "code": "social-history",
                                "system": "http://terminology.hl7.org/CodeSystem/observation-category"
                            }
                        ]
                    }
                ],
                "code": {
                    "coding": [
                        {
                            "code": "8691-8",
                            "display": "History of Travel",
                            "system": "http://loinc.org"
                        },
                        {
                            "code": "443846001",
                            "display": "Detail of history of travel (observable entity)",
                            "system": "http://snomed.info/sct"
                        }
                    ],
                    "text": "History of travel"
                },
                "component": [
                    {
                        "code": {
                            "coding": [
                                {
                                    "code": "82752-7",
                                    "display": "Date travel started",
                                    "system": "http://loinc.org"
                                }
                            ],
                            "text": "Travel start date"
                        },
                        "valueDateTime": "2020-10-20"
                    },
                    {
                        "code": {
                            "coding": [
                                {
                                    "code": "94651-7",
                                    "display": "Country of travel",
                                    "system": "http://loinc.org"
                                }
                            ],
                            "text": "Country of travel"
                        },
                        "valueCodeableConcept": {
                            "coding": [
                                {
                                    "code": "DE",
                                    "display": "Germany",
                                    "system": "urn:iso:std:iso:3166"
                                }
                            ],
                            "text": "Germany"
                        }
                    },
                    {
                        "code": {
                            "coding": [
                                {
                                    "code": "82754-3",
                                    "display": "State of travel",
                                    "system": "http://loinc.org"
                                }
                            ],
                            "text": "State of travel"
                        },
                        "valueCodeableConcept": {
                            "coding": [
                                {
                                    "code": "DE-NW",
                                    "display": "Nordrhein-Westfalen",
                                    "system": "urn:iso:std:iso:3166-2:de"
                                }
                            ],
                            "text": "Nordrhein-Westfalen"
                        }
                    },
                    {
                        "code": {
                            "coding": [
                                {
                                    "code": "94653-3",
                                    "display": "City of travel",
                                    "system": "http://loinc.org"
                                }
                            ],
                            "text": "City of travel"
                        },
                        "valueString": "Bonn"
                    },
                    {
                        "code": {
                            "coding": [
                                {
                                    "code": "91560-3",
                                    "display": "Date of departure from travel destination",
                                    "system": "http://loinc.org"
                                }
                            ],
                            "text": "Travel end date"
                        },
                        "valueDateTime": "2020-11-06"
                    }
                ],
                "effectiveDateTime": "2020-11-17T10:50:59+01:00",
                "identifier": [
                    {
                        "assigner": {
                            "reference": "Organization/Charit\u00e9"
                        },
                        "system": "https://www.charite.de/fhir/CodeSystem/observation-identifiers",
                        "type": {
                            "coding": [
                                {
                                    "code": "OBI",
                                    "system": "http://terminology.hl7.org/CodeSystem/v2-0203"
                                }
                            ]
                        },
                        "value": "8691-8_HistoryOfTravel"
                    }
                ],
                "status": "final",
                "subject": {
                    "reference": "Patient/4aff75a2-c6a0-40a5-abd2-6afe5532bc94"
                },
                "valueCodeableConcept": {
                    "coding": [
                        {
                            "code": "373066001",
                            "display": "Yes (qualifier value)",
                            "system": "http://snomed.info/sct"
                        }
                    ]
                },
                "resourceType": "Observation"
            }
        },
        {
            "request": {
                "method": "POST",
                "url": "Condition"
            },
            "resource": {
                "id": "1a8c8b96-7090-4219-afcd-aa6ed06a65f4",
                "meta": {
                    "profile": [
                        "https://www.netzwerk-universitaetsmedizin.de/fhir/StructureDefinition/gastrointestinal-ulcers"
                    ]
                },
                "category": [
                    {
                        "coding": [
                            {
                                "code": "394584008",
                                "display": "Gastroenterology",
                                "system": "http://snomed.info/sct"
                            }
                        ]
                    }
                ],
                "clinicalStatus": {
                    "coding": [
                        {
                            "code": "active",
                            "display": "Active",
                            "system": "http://terminology.hl7.org/CodeSystem/condition-clinical"
                        }
                    ]
                },
                "code": {
                    "coding": [
                        {
                            "code": "40845000",
                            "display": "Gastrointestinal ulcer",
                            "system": "http://snomed.info/sct"
                        }
                    ]
                },
                "recordedDate": "2020-11-17T10:50:59+01:00",
                "subject": {
                    "reference": "Patient/4aff75a2-c6a0-40a5-abd2-6afe5532bc94"
                },
                "verificationStatus": {
                    "coding": [
                        {
                            "code": "confirmed",
                            "display": "Confirmed",
                            "system": "http://terminology.hl7.org/CodeSystem/condition-ver-status"
                        },
                        {
                            "code": "410605003",
                            "display": "Confirmed present (qualifier value)",
                            "system": "http://snomed.info/sct"
                        }
                    ]
                },
                "resourceType": "Condition"
            }
        },
        {
            "request": {
                "method": "POST",
                "url": "Immunization"
            },
            "resource": {
                "id": "97684b9d-6318-4f2e-96b2-448e70d530ea",
                "meta": {
                    "profile": [
                        "https://www.netzwerk-universitaetsmedizin.de/fhir/StructureDefinition/immunization"
                    ]
                },
                "occurrenceDateTime": "2020-10-06",
                "patient": {
                    "reference": "Patient/4aff75a2-c6a0-40a5-abd2-6afe5532bc94"
                },
                "protocolApplied": [
                    {
                        "doseNumberString": "unknown",
                        "targetDisease": [
                            {
                                "coding": [
                                    {
                                        "code": "16814004",
                                        "display": "Pneumococcal infectious disease",
                                        "system": "http://snomed.info/sct"
                                    }
                                ]
                            }
                        ]
                    }
                ],
                "status": "completed",
                "vaccineCode": {
                    "coding": [
                        {
                            "code": "J07AL",
                            "display": "Pneumokokken-Impfstoffe",
                            "system": "http://fhir.de/CodeSystem/dimdi/atc"
                        },
                        {
                            "code": "333598008",
                            "display": "Pneumococcal vaccine",
                            "system": "http://snomed.info/sct"
                        }
                    ]
                },
                "resourceType": "Immunization"
            }
        },
        {
            "request": {
                "method": "POST",
                "url": "Consent"
            },
            "resource": {
                "id": "a29abfb9-d2d0-4fe3-b222-2b86631579e5",
                "meta": {
                    "profile": [
                        "https://www.netzwerk-universitaetsmedizin.de/fhir/StructureDefinition/do-not-resuscitate-order"
                    ]
                },
                "category": [
                    {
                        "coding": [
                            {
                                "code": "dnr",
                                "display": "Do Not Resuscitate",
                                "system": "http://terminology.hl7.org/CodeSystem/consentcategorycodes"
                            }
                        ]
                    }
                ],
                "patient": {
                    "reference": "Patient/4aff75a2-c6a0-40a5-abd2-6afe5532bc94"
                },
                "policy": [
                    {
                        "uri": "https://www.aerzteblatt.de/archiv/65440/DNR-Anordnungen-Das-fehlende-Bindeglied"
                    }
                ],
                "provision": {
                    "code": [
                        {
                            "coding": [
                                {
                                    "code": "261665006",
                                    "display": "Unknown (qualifier value)",
                                    "system": "http://snomed.info/sct"
                                }
                            ]
                        }
                    ]
                },
                "scope": {
                    "coding": [
                        {
                            "code": "adr",
                            "display": "Advanced Care Directive",
                            "system": "http://terminology.hl7.org/CodeSystem/consentscope"
                        }
                    ]
                },
                "status": "active",
                "resourceType": "Consent"
            }
        },
        {
            "request": {
                "method": "PUT",
                "url": "DiagnosticReport/a7f7b64b-ffb0-48bf-9408-680afb9dca8c"
            },
            "resource": {
                "id": "a7f7b64b-ffb0-48bf-9408-680afb9dca8c",
                "meta": {
                    "profile": [
                        "https://www.netzwerk-universitaetsmedizin.de/fhir/StructureDefinition/diagnostic-report-radiology"
                    ]
                },
                "category": [
                    {
                        "coding": [
                            {
                                "code": "18726-0",
                                "display": "Radiology studies (set)",
                                "system": "http://loinc.org"
                            },
                            {
                                "code": "RAD",
                                "display": "Radiology",
                                "system": "http://terminology.hl7.org/CodeSystem/v2-0074"
                            }
                        ]
                    }
                ],
                "code": {
                    "coding": [
                        {
                            "code": "18748-4",
                            "display": "Diagnostic imaging study",
                            "system": "http://loinc.org"
                        }
                    ]
                },
                "conclusion": "Unspezifischer Befund",
                "conclusionCode": [
                    {
                        "coding": [
                            {
                                "code": "118247008:363713009=373068000",
                                "display": "|Radiologic finding (finding)|:|Has interpretation (attribute)|=|Undetermined (qualifier value)|",
                                "system": "http://snomed.info/sct"
                            }
                        ]
                    }
                ],
                "effectiveDateTime": "2020-11-17T10:50:59+01:00",
                "status": "final",
                "subject": {
                    "reference": "Patient/4aff75a2-c6a0-40a5-abd2-6afe5532bc94"
                },
                "resourceType": "DiagnosticReport"
            }
        },
        {
            "request": {
                "method": "POST",
                "url": "Procedure"
            },
            "resource": {
                "id": "bd74fa4f-e2e1-48dc-b7e8-8771732015f1",
                "meta": {
                    "profile": [
                        "https://www.netzwerk-universitaetsmedizin.de/fhir/StructureDefinition/radiology-procedures"
                    ]
                },
                "bodySite": [
                    {
                        "coding": [
                            {
                                "code": "39607008",
                                "display": "Lung structure (body structure)",
                                "system": "http://snomed.info/sct"
                            }
                        ]
                    }
                ],
                "category": {
                    "coding": [
                        {
                            "code": "103693007",
                            "display": "Diagnostic procedure (procedure)",
                            "system": "http://snomed.info/sct"
                        }
                    ]
                },
                "code": {
                    "coding": [
                        {
                            "code": "168537006",
                            "display": "Plain radiography",
                            "system": "http://snomed.info/sct"
                        },
                        {
                            "code": "RG",
                            "display": "Radiographic imaging",
                            "system": "http://dicom.nema.org/resources/ontology/DCM"
                        }
                    ],
                    "text": "Chest x-ray"
                },
                "performedDateTime": "2020-11-17T10:50:59+01:00",
                "report": [
                    {
                        "reference": "DiagnosticReport/a7f7b64b-ffb0-48bf-9408-680afb9dca8c"
                    }
                ],
                "status": "completed",
                "subject": {
                    "reference": "Patient/4aff75a2-c6a0-40a5-abd2-6afe5532bc94"
                },
                "resourceType": "Procedure"
            }
        },
        {
            "request": {
                "method": "POST",
                "url": "Procedure"
            },
            "resource": {
                "id": "fdec9ca3-f213-4ab4-ad51-2d6e9bd89699",
                "meta": {
                    "profile": [
                        "https://www.netzwerk-universitaetsmedizin.de/fhir/StructureDefinition/radiology-procedures"
                    ]
                },
                "bodySite": [
                    {
                        "coding": [
                            {
                                "code": "39607008",
                                "display": "Lung structure (body structure)",
                                "system": "http://snomed.info/sct"
                            }
                        ]
                    }
                ],
                "category": {
                    "coding": [
                        {
                            "code": "103693007",
                            "display": "Diagnostic procedure (procedure)",
                            "system": "http://snomed.info/sct"
                        }
                    ]
                },
                "code": {
                    "coding": [
                        {
                            "code": "77477000",
                            "display": "Computerized axial tomography (procedure)",
                            "system": "http://snomed.info/sct"
                        },
                        {
                            "code": "CT",
                            "display": "Computed Tomography",
                            "system": "http://dicom.nema.org/resources/ontology/DCM"
                        }
                    ],
                    "text": "Computed Tomography"
                },
                "performedDateTime": "2020-11-17T10:50:59+01:00",
                "report": [
                    {
                        "reference": "DiagnosticReport/a7f7b64b-ffb0-48bf-9408-680afb9dca8c"
                    }
                ],
                "status": "completed",
                "subject": {
                    "reference": "Patient/4aff75a2-c6a0-40a5-abd2-6afe5532bc94"
                },
                "resourceType": "Procedure"
            }
        },
        {
            "request": {
                "method": "POST",
                "url": "Procedure"
            },
            "resource": {
                "id": "c4b57992-71ce-4753-9bdb-09cabe24b3dd",
                "meta": {
                    "profile": [
                        "https://www.netzwerk-universitaetsmedizin.de/fhir/StructureDefinition/radiology-procedures"
                    ]
                },
                "bodySite": [
                    {
                        "coding": [
                            {
                                "code": "39607008",
                                "display": "Lung structure (body structure)",
                                "system": "http://snomed.info/sct"
                            }
                        ]
                    }
                ],
                "category": {
                    "coding": [
                        {
                            "code": "103693007",
                            "display": "Diagnostic procedure (procedure)",
                            "system": "http://snomed.info/sct"
                        }
                    ]
                },
                "code": {
                    "coding": [
                        {
                            "code": "16310003",
                            "display": "Diagnostic ultrasonography (procedure)",
                            "system": "http://snomed.info/sct"
                        },
                        {
                            "code": "US",
                            "display": "Ultrasound",
                            "system": "http://dicom.nema.org/resources/ontology/DCM"
                        }
                    ],
                    "text": "Ultrasound"
                },
                "performedDateTime": "2020-11-17T10:50:59+01:00",
                "report": [
                    {
                        "reference": "DiagnosticReport/a7f7b64b-ffb0-48bf-9408-680afb9dca8c"
                    }
                ],
                "status": "completed",
                "subject": {
                    "reference": "Patient/4aff75a2-c6a0-40a5-abd2-6afe5532bc94"
                },
                "resourceType": "Procedure"
            }
        },
        {
            "request": {
                "method": "PUT",
                "url": "Observation/a73b8669-4648-44c8-a37f-14bb93aca653"
            },
            "resource": {
                "id": "a73b8669-4648-44c8-a37f-14bb93aca653",
                "meta": {
                    "profile": [
                        "https://www.netzwerk-universitaetsmedizin.de/fhir/StructureDefinition/known-exposure"
                    ]
                },
                "category": [
                    {
                        "coding": [
                            {
                                "code": "social-history",
                                "system": "http://terminology.hl7.org/CodeSystem/observation-category"
                            }
                        ]
                    }
                ],
                "code": {
                    "coding": [
                        {
                            "code": "88636-6",
                            "display": "Known exposure [Identifier]",
                            "system": "http://loinc.org"
                        }
                    ],
                    "text": "Known exposure"
                },
                "effectiveDateTime": "2020-11-14",
                "identifier": [
                    {
                        "assigner": {
                            "reference": "Organization/Charit\u00e9"
                        },
                        "system": "https://www.charite.de/fhir/CodeSystem/observation-identifiers",
                        "type": {
                            "coding": [
                                {
                                    "code": "OBI",
                                    "system": "http://terminology.hl7.org/CodeSystem/v2-0203"
                                }
                            ]
                        },
                        "value": "88636-6_KnownExposure"
                    }
                ],
                "status": "final",
                "subject": {
                    "reference": "Patient/4aff75a2-c6a0-40a5-abd2-6afe5532bc94"
                },
                "valueCodeableConcept": {
                    "coding": [
                        {
                            "code": "840546002",
                            "display": "Exposure to severe acute respiratory syndrome coronavirus 2 (event)",
                            "system": "http://snomed.info/sct"
                        }
                    ]
                },
                "resourceType": "Observation"
            }
        },
        {
            "request": {
                "method": "POST",
                "url": "Condition"
            },
            "resource": {
                "id": "5b3f2112-bdc7-42fa-b6a0-ac7958d960d7",
                "meta": {
                    "profile": [
                        "https://www.netzwerk-universitaetsmedizin.de/fhir/StructureDefinition/complications-covid-19"
                    ]
                },
                "category": [
                    {
                        "coding": [
                            {
                                "code": "116223007",
                                "display": "Complication (disorder)",
                                "system": "http://snomed.info/sct"
                            }
                        ]
                    }
                ],
                "clinicalStatus": {
                    "coding": [
                        {
                            "code": "active",
                            "display": "Active",
                            "system": "http://terminology.hl7.org/CodeSystem/condition-clinical"
                        }
                    ]
                },
                "code": {
                    "coding": [
                        {
                            "code": "128601007",
                            "display": "Infectious disease of lung (disorder)",
                            "system": "http://snomed.info/sct"
                        }
                    ]
                },
                "recordedDate": "2020-11-17T10:50:59+01:00",
                "subject": {
                    "reference": "Patient/4aff75a2-c6a0-40a5-abd2-6afe5532bc94"
                },
                "verificationStatus": {
                    "coding": [
                        {
                            "code": "confirmed",
                            "display": "Confirmed",
                            "system": "http://terminology.hl7.org/CodeSystem/condition-ver-status"
                        },
                        {
                            "code": "410605003",
                            "display": "Confirmed present (qualifier value)",
                            "system": "http://snomed.info/sct"
                        }
                    ]
                },
                "resourceType": "Condition"
            }
        },
        {
            "request": {
                "method": "POST",
                "url": "Condition"
            },
            "resource": {
                "id": "565dcac6-5339-4081-bef7-8830d602d64e",
                "meta": {
                    "profile": [
                        "https://www.netzwerk-universitaetsmedizin.de/fhir/StructureDefinition/complications-covid-19"
                    ]
                },
                "category": [
                    {
                        "coding": [
                            {
                                "code": "116223007",
                                "display": "Complication (disorder)",
                                "system": "http://snomed.info/sct"
                            }
                        ]
                    }
                ],
                "clinicalStatus": {
                    "coding": [
                        {
                            "code": "active",
                            "display": "Active",
                            "system": "http://terminology.hl7.org/CodeSystem/condition-clinical"
                        }
                    ]
                },
                "code": {
                    "coding": [
                        {
                            "code": "434156008",
                            "display": "Infectious agent in bloodstream (finding)",
                            "system": "http://snomed.info/sct"
                        }
                    ]
                },
                "recordedDate": "2020-11-17T10:50:59+01:00",
                "subject": {
                    "reference": "Patient/4aff75a2-c6a0-40a5-abd2-6afe5532bc94"
                },
                "verificationStatus": {
                    "coding": [
                        {
                            "code": "confirmed",
                            "display": "Confirmed",
                            "system": "http://terminology.hl7.org/CodeSystem/condition-ver-status"
                        },
                        {
                            "code": "410605003",
                            "display": "Confirmed present (qualifier value)",
                            "system": "http://snomed.info/sct"
                        }
                    ]
                },
                "resourceType": "Condition"
            }
        },
        {
            "request": {
                "method": "POST",
                "url": "Condition"
            },
            "resource": {
                "id": "428a630d-2818-41b0-bb9b-022cde1de294",
                "meta": {
                    "profile": [
                        "https://www.netzwerk-universitaetsmedizin.de/fhir/StructureDefinition/complications-covid-19"
                    ]
                },
                "category": [
                    {
                        "coding": [
                            {
                                "code": "116223007",
                                "display": "Complication (disorder)",
                                "system": "http://snomed.info/sct"
                            }
                        ]
                    }
                ],
                "clinicalStatus": {
                    "coding": [
                        {
                            "code": "active",
                            "display": "Active",
                            "system": "http://terminology.hl7.org/CodeSystem/condition-clinical"
                        }
                    ]
                },
                "code": {
                    "coding": [
                        {
                            "code": "111293003",
                            "display": "Venous thrombosis (disorder)",
                            "system": "http://snomed.info/sct"
                        }
                    ]
                },
                "recordedDate": "2020-11-17T10:50:59+01:00",
                "subject": {
                    "reference": "Patient/4aff75a2-c6a0-40a5-abd2-6afe5532bc94"
                },
                "verificationStatus": {
                    "coding": [
                        {
                            "code": "confirmed",
                            "display": "Confirmed",
                            "system": "http://terminology.hl7.org/CodeSystem/condition-ver-status"
                        },
                        {
                            "code": "410605003",
                            "display": "Confirmed present (qualifier value)",
                            "system": "http://snomed.info/sct"
                        }
                    ]
                },
                "resourceType": "Condition"
            }
        },
        {
            "request": {
                "method": "POST",
                "url": "Condition"
            },
            "resource": {
                "id": "9ad2f6e7-1b48-4471-aba8-e18574d20a4e",
                "meta": {
                    "profile": [
                        "https://www.netzwerk-universitaetsmedizin.de/fhir/StructureDefinition/complications-covid-19"
                    ]
                },
                "category": [
                    {
                        "coding": [
                            {
                                "code": "116223007",
                                "display": "Complication (disorder)",
                                "system": "http://snomed.info/sct"
                            }
                        ]
                    }
                ],
                "clinicalStatus": {
                    "coding": [
                        {
                            "code": "active",
                            "display": "Active",
                            "system": "http://terminology.hl7.org/CodeSystem/condition-clinical"
                        }
                    ]
                },
                "code": {
                    "coding": [
                        {
                            "code": "59282003",
                            "display": "Pulmonary embolism (disorder)",
                            "system": "http://snomed.info/sct"
                        }
                    ]
                },
                "recordedDate": "2020-11-17T10:50:59+01:00",
                "subject": {
                    "reference": "Patient/4aff75a2-c6a0-40a5-abd2-6afe5532bc94"
                },
                "verificationStatus": {
                    "coding": [
                        {
                            "code": "confirmed",
                            "display": "Confirmed",
                            "system": "http://terminology.hl7.org/CodeSystem/condition-ver-status"
                        },
                        {
                            "code": "410605003",
                            "display": "Confirmed present (qualifier value)",
                            "system": "http://snomed.info/sct"
                        }
                    ]
                },
                "resourceType": "Condition"
            }
        },
        {
            "request": {
                "method": "POST",
                "url": "Condition"
            },
            "resource": {
                "id": "3666027a-c487-429a-b3c2-8ced875ffba3",
                "meta": {
                    "profile": [
                        "https://www.netzwerk-universitaetsmedizin.de/fhir/StructureDefinition/complications-covid-19"
                    ]
                },
                "category": [
                    {
                        "coding": [
                            {
                                "code": "116223007",
                                "display": "Complication (disorder)",
                                "system": "http://snomed.info/sct"
                            }
                        ]
                    }
                ],
                "clinicalStatus": {
                    "coding": [
                        {
                            "code": "active",
                            "display": "Active",
                            "system": "http://terminology.hl7.org/CodeSystem/condition-clinical"
                        }
                    ]
                },
                "code": {
                    "coding": [
                        {
                            "code": "230690007",
                            "display": "Cerebrovascular accident (disorder)",
                            "system": "http://snomed.info/sct"
                        }
                    ]
                },
                "recordedDate": "2020-11-17T10:50:59+01:00",
                "subject": {
                    "reference": "Patient/4aff75a2-c6a0-40a5-abd2-6afe5532bc94"
                },
                "verificationStatus": {
                    "coding": [
                        {
                            "code": "confirmed",
                            "display": "Confirmed",
                            "system": "http://terminology.hl7.org/CodeSystem/condition-ver-status"
                        },
                        {
                            "code": "410605003",
                            "display": "Confirmed present (qualifier value)",
                            "system": "http://snomed.info/sct"
                        }
                    ]
                },
                "resourceType": "Condition"
            }
        },
        {
            "request": {
                "method": "POST",
                "url": "Condition"
            },
            "resource": {
                "id": "8a86a1bc-9708-45f2-b704-e7592d323d8c",
                "meta": {
                    "profile": [
                        "https://www.netzwerk-universitaetsmedizin.de/fhir/StructureDefinition/complications-covid-19"
                    ]
                },
                "extension": [
                    {
                        "url": "https://www.netzwerk-universitaetsmedizin.de/fhir/StructureDefinition/uncertainty-of-presence",
                        "valueCodeableConcept": {
                            "coding": [
                                {
                                    "code": "261665006",
                                    "display": "Unknown (qualifier value)",
                                    "system": "http://snomed.info/sct"
                                }
                            ],
                            "text": "Presence of condition is unknown."
                        }
                    }
                ],
                "category": [
                    {
                        "coding": [
                            {
                                "code": "116223007",
                                "display": "Complication (disorder)",
                                "system": "http://snomed.info/sct"
                            }
                        ]
                    }
                ],
                "code": {
                    "coding": [
                        {
                            "code": "22298006",
                            "display": "Myocardial infarction (disorder)",
                            "system": "http://snomed.info/sct"
                        }
                    ]
                },
                "recordedDate": "2020-11-17T10:50:59+01:00",
                "subject": {
                    "reference": "Patient/4aff75a2-c6a0-40a5-abd2-6afe5532bc94"
                },
                "resourceType": "Condition"
            }
        },
        {
            "request": {
                "method": "POST",
                "url": "Condition"
            },
            "resource": {
                "id": "29fb9d3f-51f9-4a58-9a60-06e41bb23309",
                "meta": {
                    "profile": [
                        "https://www.netzwerk-universitaetsmedizin.de/fhir/StructureDefinition/complications-covid-19"
                    ]
                },
                "category": [
                    {
                        "coding": [
                            {
                                "code": "116223007",
                                "display": "Complication (disorder)",
                                "system": "http://snomed.info/sct"
                            }
                        ]
                    }
                ],
                "code": {
                    "coding": [
                        {
                            "code": "129561000119108",
                            "display": "Pre-renal acute kidney injury (disorder)",
                            "system": "http://snomed.info/sct"
                        }
                    ]
                },
                "recordedDate": "2020-11-17T10:50:59+01:00",
                "subject": {
                    "reference": "Patient/4aff75a2-c6a0-40a5-abd2-6afe5532bc94"
                },
                "verificationStatus": {
                    "coding": [
                        {
                            "code": "refuted",
                            "display": "Refuted",
                            "system": "http://terminology.hl7.org/CodeSystem/condition-ver-status"
                        },
                        {
                            "code": "410594000",
                            "display": "Definitely NOT present (qualifier value)",
                            "system": "http://snomed.info/sct"
                        }
                    ]
                },
                "resourceType": "Condition"
            }
        },
        {
            "request": {
                "method": "POST",
                "url": "Condition"
            },
            "resource": {
                "id": "ad9eade8-5126-4a2f-a233-8a811653f381",
                "meta": {
                    "profile": [
                        "https://www.netzwerk-universitaetsmedizin.de/fhir/StructureDefinition/diagnosis-covid-19"
                    ]
                },
                "category": [
                    {
                        "coding": [
                            {
                                "code": "394807007",
                                "display": "Infectious diseases (specialty) (qualifier value)",
                                "system": "http://snomed.info/sct"
                            }
                        ]
                    }
                ],
                "clinicalStatus": {
                    "coding": [
                        {
                            "code": "active",
                            "display": "Active",
                            "system": "http://terminology.hl7.org/CodeSystem/condition-clinical"
                        }
                    ]
                },
                "code": {
                    "coding": [
                        {
                            "code": "840539006",
                            "display": "Disease caused by Severe acute respiratory syndrome coronavirus 2 (disorder)",
                            "system": "http://snomed.info/sct"
                        }
                    ]
                },
                "recordedDate": "2020-11-17T10:50:59+01:00",
                "stage": [
                    {
                        "summary": {
                            "coding": [
                                {
                                    "code": "277022003",
                                    "display": "Remission phase (qualifier value)",
                                    "system": "http://snomed.info/sct"
                                }
                            ],
                            "text": "Recovery phase"
                        },
                        "type": {
                            "coding": [
                                {
                                    "code": "88859-4",
                                    "display": "Disease stage score for risk calculation",
                                    "system": "http://loinc.org"
                                }
                            ]
                        }
                    }
                ],
                "subject": {
                    "reference": "Patient/4aff75a2-c6a0-40a5-abd2-6afe5532bc94"
                },
                "verificationStatus": {
                    "coding": [
                        {
                            "code": "confirmed",
                            "display": "Confirmed",
                            "system": "http://terminology.hl7.org/CodeSystem/condition-ver-status"
                        },
                        {
                            "code": "410605003",
                            "display": "Confirmed present (qualifier value)",
                            "system": "http://snomed.info/sct"
                        }
                    ]
                },
                "resourceType": "Condition"
            }
        },
        {
            "request": {
                "method": "PUT",
                "url": "Observation/55a1b73c-1eb3-44aa-a586-ea4a36cd887d"
            },
            "resource": {
                "id": "55a1b73c-1eb3-44aa-a586-ea4a36cd887d",
                "meta": {
                    "profile": [
                        "https://www.medizininformatik-initiative.de/fhir/core/modul-labor/StructureDefinition/ObservationLab"
                    ]
                },
                "category": [
                    {
                        "coding": [
                            {
                                "code": "26436-6",
                                "system": "http://loinc.org"
                            },
                            {
                                "code": "laboratory",
                                "system": "http://terminology.hl7.org/CodeSystem/observation-category"
                            }
                        ]
                    }
                ],
                "code": {
                    "coding": [
                        {
                            "code": "1988-5",
                            "display": "C reactive protein [Mass/volume] in Serum or Plasma",
                            "system": "http://loinc.org"
                        }
                    ],
                    "text": "CRP"
                },
                "effectiveDateTime": "2020-11-17T10:50:59+01:00",
                "identifier": [
                    {
                        "assigner": {
                            "reference": "Organization/Charit\u00e9"
                        },
                        "system": "https://www.charite.de/fhir/CodeSystem/lab-identifiers",
                        "type": {
                            "coding": [
                                {
                                    "code": "OBI",
                                    "system": "http://terminology.hl7.org/CodeSystem/v2-0203"
                                }
                            ]
                        },
                        "value": "1988-5_c-reactive-protein-mass-per-volume-in-serum-or-plasma"
                    }
                ],
                "status": "final",
                "subject": {
                    "reference": "Patient/4aff75a2-c6a0-40a5-abd2-6afe5532bc94"
                },
                "valueQuantity": {
                    "code": "mg/L",
                    "system": "http://unitsofmeasure.org",
                    "unit": "mg/L",
                    "value": 0.3
                },
                "resourceType": "Observation"
            }
        },
        {
            "request": {
                "method": "PUT",
                "url": "Observation/bd3f8f95-da9f-4105-b3ff-632f14b0cd8b"
            },
            "resource": {
                "id": "bd3f8f95-da9f-4105-b3ff-632f14b0cd8b",
                "meta": {
                    "profile": [
                        "https://www.medizininformatik-initiative.de/fhir/core/modul-labor/StructureDefinition/ObservationLab"
                    ]
                },
                "category": [
                    {
                        "coding": [
                            {
                                "code": "26436-6",
                                "system": "http://loinc.org"
                            },
                            {
                                "code": "laboratory",
                                "system": "http://terminology.hl7.org/CodeSystem/observation-category"
                            }
                        ]
                    }
                ],
                "code": {
                    "coding": [
                        {
                            "code": "2276-4",
                            "display": "Ferritin [Mass/volume] in Serum or Plasma",
                            "system": "http://loinc.org"
                        }
                    ],
                    "text": "Ferritin"
                },
                "effectiveDateTime": "2020-11-17T10:50:59+01:00",
                "identifier": [
                    {
                        "assigner": {
                            "reference": "Organization/Charit\u00e9"
                        },
                        "system": "https://www.charite.de/fhir/CodeSystem/lab-identifiers",
                        "type": {
                            "coding": [
                                {
                                    "code": "OBI",
                                    "system": "http://terminology.hl7.org/CodeSystem/v2-0203"
                                }
                            ]
                        },
                        "value": "2276-4_ferritin-mass-per-volume-in-serum-or-plasma"
                    }
                ],
                "status": "final",
                "subject": {
                    "reference": "Patient/4aff75a2-c6a0-40a5-abd2-6afe5532bc94"
                },
                "valueQuantity": {
                    "code": "ng/mL",
                    "system": "http://unitsofmeasure.org",
                    "unit": "ng/mL",
                    "value": 88.8
                },
                "resourceType": "Observation"
            }
        },
        {
            "request": {
                "method": "PUT",
                "url": "Observation/ebc1e4d4-9b0e-44cc-a1fd-f5c3b3d8cc0b"
            },
            "resource": {
                "id": "ebc1e4d4-9b0e-44cc-a1fd-f5c3b3d8cc0b",
                "meta": {
                    "profile": [
                        "https://www.medizininformatik-initiative.de/fhir/core/modul-labor/StructureDefinition/ObservationLab"
                    ]
                },
                "category": [
                    {
                        "coding": [
                            {
                                "code": "26436-6",
                                "system": "http://loinc.org"
                            },
                            {
                                "code": "laboratory",
                                "system": "http://terminology.hl7.org/CodeSystem/observation-category"
                            }
                        ]
                    }
                ],
                "code": {
                    "coding": [
                        {
                            "code": "1971-1",
                            "display": "Bilirubin.indirect [Mass/volume] in Serum or Plasma",
                            "system": "http://loinc.org"
                        }
                    ],
                    "text": "Bilirubin"
                },
                "effectiveDateTime": "2020-11-17T10:50:59+01:00",
                "identifier": [
                    {
                        "assigner": {
                            "reference": "Organization/Charit\u00e9"
                        },
                        "system": "https://www.charite.de/fhir/CodeSystem/lab-identifiers",
                        "type": {
                            "coding": [
                                {
                                    "code": "OBI",
                                    "system": "http://terminology.hl7.org/CodeSystem/v2-0203"
                                }
                            ]
                        },
                        "value": "1971-1_bilirubin.indirect-mass-per-volume-in-serum-or-plasma"
                    }
                ],
                "status": "final",
                "subject": {
                    "reference": "Patient/4aff75a2-c6a0-40a5-abd2-6afe5532bc94"
                },
                "valueQuantity": {
                    "code": "mg/dL",
                    "system": "http://unitsofmeasure.org",
                    "unit": "mg/dL",
                    "value": 0.47
                },
                "resourceType": "Observation"
            }
        },
        {
            "request": {
                "method": "PUT",
                "url": "Observation/ebf92131-f553-4e6c-9342-f944dc1a1937"
            },
            "resource": {
                "id": "ebf92131-f553-4e6c-9342-f944dc1a1937",
                "meta": {
                    "profile": [
                        "https://www.medizininformatik-initiative.de/fhir/core/modul-labor/StructureDefinition/ObservationLab"
                    ]
                },
                "category": [
                    {
                        "coding": [
                            {
                                "code": "26436-6",
                                "system": "http://loinc.org"
                            },
                            {
                                "code": "laboratory",
                                "system": "http://terminology.hl7.org/CodeSystem/observation-category"
                            }
                        ]
                    }
                ],
                "code": {
                    "coding": [
                        {
                            "code": "48066-5",
                            "display": "Fibrin D-dimer DDU [Mass/volume] in Platelet poor plasma",
                            "system": "http://loinc.org"
                        }
                    ],
                    "text": "D-dimer"
                },
                "effectiveDateTime": "2020-11-17T10:50:59+01:00",
                "identifier": [
                    {
                        "assigner": {
                            "reference": "Organization/Charit\u00e9"
                        },
                        "system": "https://www.charite.de/fhir/CodeSystem/lab-identifiers",
                        "type": {
                            "coding": [
                                {
                                    "code": "OBI",
                                    "system": "http://terminology.hl7.org/CodeSystem/v2-0203"
                                }
                            ]
                        },
                        "value": "48066-5_fibrin-d-dimer-ddu-mass-per-volume-in-platelet-poor-plasma"
                    }
                ],
                "status": "final",
                "subject": {
                    "reference": "Patient/4aff75a2-c6a0-40a5-abd2-6afe5532bc94"
                },
                "valueQuantity": {
                    "code": "ug/L{DDU}",
                    "system": "http://unitsofmeasure.org",
                    "unit": "ug/L{DDU}",
                    "value": 206
                },
                "resourceType": "Observation"
            }
        },
        {
            "request": {
                "method": "PUT",
                "url": "Observation/2ec2c00e-e7c2-4c9a-b94a-993bbb20db23"
            },
            "resource": {
                "id": "2ec2c00e-e7c2-4c9a-b94a-993bbb20db23",
                "meta": {
                    "profile": [
                        "https://www.medizininformatik-initiative.de/fhir/core/modul-labor/StructureDefinition/ObservationLab"
                    ]
                },
                "category": [
                    {
                        "coding": [
                            {
                                "code": "26436-6",
                                "system": "http://loinc.org"
                            },
                            {
                                "code": "laboratory",
                                "system": "http://terminology.hl7.org/CodeSystem/observation-category"
                            }
                        ]
                    }
                ],
                "code": {
                    "coding": [
                        {
                            "code": "2324-2",
                            "display": "Gamma glutamyl transferase [Enzymatic activity/volume] in Serum or Plasma",
                            "system": "http://loinc.org"
                        }
                    ],
                    "text": "Gamma glutamyl transferase"
                },
                "effectiveDateTime": "2020-11-17T10:50:59+01:00",
                "identifier": [
                    {
                        "assigner": {
                            "reference": "Organization/Charit\u00e9"
                        },
                        "system": "https://www.charite.de/fhir/CodeSystem/lab-identifiers",
                        "type": {
                            "coding": [
                                {
                                    "code": "OBI",
                                    "system": "http://terminology.hl7.org/CodeSystem/v2-0203"
                                }
                            ]
                        },
                        "value": "2324-2_gamma-glutamyl-transferase-enzymatic-activity-per-volume-in-serum-or-plasma"
                    }
                ],
                "status": "final",
                "subject": {
                    "reference": "Patient/4aff75a2-c6a0-40a5-abd2-6afe5532bc94"
                },
                "valueQuantity": {
                    "code": "U/L",
                    "system": "http://unitsofmeasure.org",
                    "unit": "U/L",
                    "value": 33
                },
                "resourceType": "Observation"
            }
        },
        {
            "request": {
                "method": "PUT",
                "url": "Observation/bc2e0c82-dad3-4385-94ef-a23da0ade13a"
            },
            "resource": {
                "id": "bc2e0c82-dad3-4385-94ef-a23da0ade13a",
                "meta": {
                    "profile": [
                        "https://www.medizininformatik-initiative.de/fhir/core/modul-labor/StructureDefinition/ObservationLab"
                    ]
                },
                "category": [
                    {
                        "coding": [
                            {
                                "code": "26436-6",
                                "system": "http://loinc.org"
                            },
                            {
                                "code": "laboratory",
                                "system": "http://terminology.hl7.org/CodeSystem/observation-category"
                            }
                        ]
                    }
                ],
                "code": {
                    "coding": [
                        {
                            "code": "30239-8",
                            "display": "Aspartate aminotransferase [Enzymatic activity/volume] in Serum or Plasma by With P-5-P",
                            "system": "http://loinc.org"
                        }
                    ],
                    "text": "Aspartate aminotransferase"
                },
                "effectiveDateTime": "2020-11-17T10:50:59+01:00",
                "identifier": [
                    {
                        "assigner": {
                            "reference": "Organization/Charit\u00e9"
                        },
                        "system": "https://www.charite.de/fhir/CodeSystem/lab-identifiers",
                        "type": {
                            "coding": [
                                {
                                    "code": "OBI",
                                    "system": "http://terminology.hl7.org/CodeSystem/v2-0203"
                                }
                            ]
                        },
                        "value": "30239-8_aspartate-aminotransferase-enzymatic-activity-per-volume-in-serum-or-plasma-by-with-p-5-p"
                    }
                ],
                "status": "final",
                "subject": {
                    "reference": "Patient/4aff75a2-c6a0-40a5-abd2-6afe5532bc94"
                },
                "valueQuantity": {
                    "code": "U/L",
                    "system": "http://unitsofmeasure.org",
                    "unit": "U/L",
                    "value": 31
                },
                "resourceType": "Observation"
            }
        },
        {
            "request": {
                "method": "PUT",
                "url": "Observation/3b157f2e-1a93-48eb-9274-9b63c253f0bd"
            },
            "resource": {
                "id": "3b157f2e-1a93-48eb-9274-9b63c253f0bd",
                "meta": {
                    "profile": [
                        "https://www.medizininformatik-initiative.de/fhir/core/modul-labor/StructureDefinition/ObservationLab"
                    ]
                },
                "category": [
                    {
                        "coding": [
                            {
                                "code": "26436-6",
                                "system": "http://loinc.org"
                            },
                            {
                                "code": "laboratory",
                                "system": "http://terminology.hl7.org/CodeSystem/observation-category"
                            }
                        ]
                    }
                ],
                "code": {
                    "coding": [
                        {
                            "code": "14804-9",
                            "display": "Lactate dehydrogenase [Enzymatic activity/volume] in Serum or Plasma by Lactate to pyruvate reaction",
                            "system": "http://loinc.org"
                        }
                    ],
                    "text": "Lactate dehydrogenase"
                },
                "effectiveDateTime": "2020-11-17T10:50:59+01:00",
                "identifier": [
                    {
                        "assigner": {
                            "reference": "Organization/Charit\u00e9"
                        },
                        "system": "https://www.charite.de/fhir/CodeSystem/lab-identifiers",
                        "type": {
                            "coding": [
                                {
                                    "code": "OBI",
                                    "system": "http://terminology.hl7.org/CodeSystem/v2-0203"
                                }
                            ]
                        },
                        "value": "14804-9_lactate-dehydrogenase-enzymatic-activity-per-volume-in-serum-or-plasma-by-lactate-to-pyruvate-reaction"
                    }
                ],
                "status": "final",
                "subject": {
                    "reference": "Patient/4aff75a2-c6a0-40a5-abd2-6afe5532bc94"
                },
                "valueQuantity": {
                    "code": "U/L",
                    "system": "http://unitsofmeasure.org",
                    "unit": "U/L",
                    "value": 208
                },
                "resourceType": "Observation"
            }
        },
        {
            "request": {
                "method": "PUT",
                "url": "Observation/24f7855b-4226-4736-83e1-c8f221fbbfdf"
            },
            "resource": {
                "id": "24f7855b-4226-4736-83e1-c8f221fbbfdf",
                "meta": {
                    "profile": [
                        "https://www.medizininformatik-initiative.de/fhir/core/modul-labor/StructureDefinition/ObservationLab"
                    ]
                },
                "category": [
                    {
                        "coding": [
                            {
                                "code": "26436-6",
                                "system": "http://loinc.org"
                            },
                            {
                                "code": "laboratory",
                                "system": "http://terminology.hl7.org/CodeSystem/observation-category"
                            }
                        ]
                    }
                ],
                "code": {
                    "coding": [
                        {
                            "code": "67151-1",
                            "display": "Troponin T.cardiac [Mass/volume] in Serum or Plasma by High sensitivity method",
                            "system": "http://loinc.org"
                        }
                    ],
                    "text": "Cardiac troponin"
                },
                "effectiveDateTime": "2020-11-17T10:50:59+01:00",
                "identifier": [
                    {
                        "assigner": {
                            "reference": "Organization/Charit\u00e9"
                        },
                        "system": "https://www.charite.de/fhir/CodeSystem/lab-identifiers",
                        "type": {
                            "coding": [
                                {
                                    "code": "OBI",
                                    "system": "http://terminology.hl7.org/CodeSystem/v2-0203"
                                }
                            ]
                        },
                        "value": "67151-1_troponin-t.cardiac-mass-per-volume-in-serum-or-plasma-by-high-sensitivity-method"
                    }
                ],
                "status": "final",
                "subject": {
                    "reference": "Patient/4aff75a2-c6a0-40a5-abd2-6afe5532bc94"
                },
                "valueQuantity": {
                    "code": "ng/L",
                    "system": "http://unitsofmeasure.org",
                    "unit": "ng/L",
                    "value": 10
                },
                "resourceType": "Observation"
            }
        },
        {
            "request": {
                "method": "PUT",
                "url": "Observation/c012cf4a-d06a-4fe2-94ff-0c28d0b555a0"
            },
            "resource": {
                "id": "c012cf4a-d06a-4fe2-94ff-0c28d0b555a0",
                "meta": {
                    "profile": [
                        "https://www.medizininformatik-initiative.de/fhir/core/modul-labor/StructureDefinition/ObservationLab"
                    ]
                },
                "category": [
                    {
                        "coding": [
                            {
                                "code": "26436-6",
                                "system": "http://loinc.org"
                            },
                            {
                                "code": "laboratory",
                                "system": "http://terminology.hl7.org/CodeSystem/observation-category"
                            }
                        ]
                    }
                ],
                "code": {
                    "coding": [
                        {
                            "code": "718-7",
                            "display": "Hemoglobin [Mass/volume] in Blood",
                            "system": "http://loinc.org"
                        }
                    ],
                    "text": "Hemoglobin"
                },
                "effectiveDateTime": "2020-11-17T10:50:59+01:00",
                "identifier": [
                    {
                        "assigner": {
                            "reference": "Organization/Charit\u00e9"
                        },
                        "system": "https://www.charite.de/fhir/CodeSystem/lab-identifiers",
                        "type": {
                            "coding": [
                                {
                                    "code": "OBI",
                                    "system": "http://terminology.hl7.org/CodeSystem/v2-0203"
                                }
                            ]
                        },
                        "value": "718-7_hemoglobin-mass-per-volume-in-blood"
                    }
                ],
                "status": "final",
                "subject": {
                    "reference": "Patient/4aff75a2-c6a0-40a5-abd2-6afe5532bc94"
                },
                "valueQuantity": {
                    "code": "g/dL",
                    "system": "http://unitsofmeasure.org",
                    "unit": "g/dL",
                    "value": 15.4
                },
                "resourceType": "Observation"
            }
        },
        {
            "request": {
                "method": "PUT",
                "url": "Observation/aef4e13b-f824-43b2-9421-06c26c214566"
            },
            "resource": {
                "id": "aef4e13b-f824-43b2-9421-06c26c214566",
                "meta": {
                    "profile": [
                        "https://www.medizininformatik-initiative.de/fhir/core/modul-labor/StructureDefinition/ObservationLab"
                    ]
                },
                "category": [
                    {
                        "coding": [
                            {
                                "code": "26436-6",
                                "system": "http://loinc.org"
                            },
                            {
                                "code": "laboratory",
                                "system": "http://terminology.hl7.org/CodeSystem/observation-category"
                            }
                        ]
                    }
                ],
                "code": {
                    "coding": [
                        {
                            "code": "2160-0",
                            "display": "Creatinine [Mass/volume] in Serum or Plasma",
                            "system": "http://loinc.org"
                        }
                    ],
                    "text": "Creatinine"
                },
                "effectiveDateTime": "2020-11-17T10:50:59+01:00",
                "identifier": [
                    {
                        "assigner": {
                            "reference": "Organization/Charit\u00e9"
                        },
                        "system": "https://www.charite.de/fhir/CodeSystem/lab-identifiers",
                        "type": {
                            "coding": [
                                {
                                    "code": "OBI",
                                    "system": "http://terminology.hl7.org/CodeSystem/v2-0203"
                                }
                            ]
                        },
                        "value": "2160-0_creatinine-mass-per-volume-in-serum-or-plasma"
                    }
                ],
                "status": "final",
                "subject": {
                    "reference": "Patient/4aff75a2-c6a0-40a5-abd2-6afe5532bc94"
                },
                "valueQuantity": {
                    "code": "mg/dL",
                    "system": "http://unitsofmeasure.org",
                    "unit": "mg/dL",
                    "value": 0.7
                },
                "resourceType": "Observation"
            }
        },
        {
            "request": {
                "method": "PUT",
                "url": "Observation/2917b5c1-6785-453e-a9a9-61af249cd17f"
            },
            "resource": {
                "id": "2917b5c1-6785-453e-a9a9-61af249cd17f",
                "meta": {
                    "profile": [
                        "https://www.medizininformatik-initiative.de/fhir/core/modul-labor/StructureDefinition/ObservationLab"
                    ]
                },
                "category": [
                    {
                        "coding": [
                            {
                                "code": "26436-6",
                                "system": "http://loinc.org"
                            },
                            {
                                "code": "laboratory",
                                "system": "http://terminology.hl7.org/CodeSystem/observation-category"
                            }
                        ]
                    }
                ],
                "code": {
                    "coding": [
                        {
                            "code": "2519-7",
                            "display": "Lactate [Moles/volume] in Venous blood",
                            "system": "http://loinc.org"
                        }
                    ],
                    "text": "Lactate"
                },
                "effectiveDateTime": "2020-11-17T10:50:59+01:00",
                "identifier": [
                    {
                        "assigner": {
                            "reference": "Organization/Charit\u00e9"
                        },
                        "system": "https://www.charite.de/fhir/CodeSystem/lab-identifiers",
                        "type": {
                            "coding": [
                                {
                                    "code": "OBI",
                                    "system": "http://terminology.hl7.org/CodeSystem/v2-0203"
                                }
                            ]
                        },
                        "value": "2519-7_lactate-moles-per-volume-in-venous-blood"
                    }
                ],
                "status": "final",
                "subject": {
                    "reference": "Patient/4aff75a2-c6a0-40a5-abd2-6afe5532bc94"
                },
                "valueQuantity": {
                    "code": "mmol/L",
                    "system": "http://unitsofmeasure.org",
                    "unit": "mmol/L",
                    "value": 13.2
                },
                "resourceType": "Observation"
            }
        },
        {
            "request": {
                "method": "PUT",
                "url": "Observation/28e4ed5a-957b-43ab-95d5-03a1317a3279"
            },
            "resource": {
                "id": "28e4ed5a-957b-43ab-95d5-03a1317a3279",
                "meta": {
                    "profile": [
                        "https://www.medizininformatik-initiative.de/fhir/core/modul-labor/StructureDefinition/ObservationLab"
                    ]
                },
                "category": [
                    {
                        "coding": [
                            {
                                "code": "26436-6",
                                "system": "http://loinc.org"
                            },
                            {
                                "code": "laboratory",
                                "system": "http://terminology.hl7.org/CodeSystem/observation-category"
                            }
                        ]
                    }
                ],
                "code": {
                    "coding": [
                        {
                            "code": "6690-2",
                            "display": "Leukocytes [#/volume] in Blood by Automated count",
                            "system": "http://loinc.org"
                        }
                    ],
                    "text": "Leukocytes"
                },
                "effectiveDateTime": "2020-11-17T10:50:59+01:00",
                "identifier": [
                    {
                        "assigner": {
                            "reference": "Organization/Charit\u00e9"
                        },
                        "system": "https://www.charite.de/fhir/CodeSystem/lab-identifiers",
                        "type": {
                            "coding": [
                                {
                                    "code": "OBI",
                                    "system": "http://terminology.hl7.org/CodeSystem/v2-0203"
                                }
                            ]
                        },
                        "value": "6690-2_leukocytes-number-per-volume-in-blood-by-automated-count"
                    }
                ],
                "status": "final",
                "subject": {
                    "reference": "Patient/4aff75a2-c6a0-40a5-abd2-6afe5532bc94"
                },
                "valueQuantity": {
                    "code": "10*3/uL",
                    "system": "http://unitsofmeasure.org",
                    "unit": "10*3/uL",
                    "value": 6.11
                },
                "resourceType": "Observation"
            }
        },
        {
            "request": {
                "method": "PUT",
                "url": "Observation/5f4b8be7-1b1a-4326-b902-9e550757e7fe"
            },
            "resource": {
                "id": "5f4b8be7-1b1a-4326-b902-9e550757e7fe",
                "meta": {
                    "profile": [
                        "https://www.medizininformatik-initiative.de/fhir/core/modul-labor/StructureDefinition/ObservationLab"
                    ]
                },
                "category": [
                    {
                        "coding": [
                            {
                                "code": "26436-6",
                                "system": "http://loinc.org"
                            },
                            {
                                "code": "laboratory",
                                "system": "http://terminology.hl7.org/CodeSystem/observation-category"
                            }
                        ]
                    }
                ],
                "code": {
                    "coding": [
                        {
                            "code": "731-0",
                            "display": "Lymphocytes [#/volume] in Blood by Automated count",
                            "system": "http://loinc.org"
                        }
                    ],
                    "text": "Lymphocytes"
                },
                "effectiveDateTime": "2020-11-17T10:50:59+01:00",
                "identifier": [
                    {
                        "assigner": {
                            "reference": "Organization/Charit\u00e9"
                        },
                        "system": "https://www.charite.de/fhir/CodeSystem/lab-identifiers",
                        "type": {
                            "coding": [
                                {
                                    "code": "OBI",
                                    "system": "http://terminology.hl7.org/CodeSystem/v2-0203"
                                }
                            ]
                        },
                        "value": "731-0_lymphocytes-number-per-volume-in-blood-by-automated-count"
                    }
                ],
                "status": "final",
                "subject": {
                    "reference": "Patient/4aff75a2-c6a0-40a5-abd2-6afe5532bc94"
                },
                "valueQuantity": {
                    "code": "10*3/uL",
                    "system": "http://unitsofmeasure.org",
                    "unit": "10*3/uL",
                    "value": 3.16
                },
                "resourceType": "Observation"
            }
        },
        {
            "request": {
                "method": "PUT",
                "url": "Observation/61d96a74-f8f8-48c2-a8dc-b42b2a1fb973"
            },
            "resource": {
                "id": "61d96a74-f8f8-48c2-a8dc-b42b2a1fb973",
                "meta": {
                    "profile": [
                        "https://www.medizininformatik-initiative.de/fhir/core/modul-labor/StructureDefinition/ObservationLab"
                    ]
                },
                "category": [
                    {
                        "coding": [
                            {
                                "code": "26436-6",
                                "system": "http://loinc.org"
                            },
                            {
                                "code": "laboratory",
                                "system": "http://terminology.hl7.org/CodeSystem/observation-category"
                            }
                        ]
                    }
                ],
                "code": {
                    "coding": [
                        {
                            "code": "751-8",
                            "display": "Neutrophils [#/volume] in Blood by Automated count",
                            "system": "http://loinc.org"
                        }
                    ],
                    "text": "Neutrophils"
                },
                "effectiveDateTime": "2020-11-17T10:50:59+01:00",
                "identifier": [
                    {
                        "assigner": {
                            "reference": "Organization/Charit\u00e9"
                        },
                        "system": "https://www.charite.de/fhir/CodeSystem/lab-identifiers",
                        "type": {
                            "coding": [
                                {
                                    "code": "OBI",
                                    "system": "http://terminology.hl7.org/CodeSystem/v2-0203"
                                }
                            ]
                        },
                        "value": "751-8_neutrophils-number-per-volume-in-blood-by-automated-count"
                    }
                ],
                "status": "final",
                "subject": {
                    "reference": "Patient/4aff75a2-c6a0-40a5-abd2-6afe5532bc94"
                },
                "valueQuantity": {
                    "code": "10*3/uL",
                    "system": "http://unitsofmeasure.org",
                    "unit": "10*3/uL",
                    "value": 3.3
                },
                "resourceType": "Observation"
            }
        },
        {
            "request": {
                "method": "PUT",
                "url": "Observation/316c1e2c-6dd1-4dfb-9e9a-3c4158585aa0"
            },
            "resource": {
                "id": "316c1e2c-6dd1-4dfb-9e9a-3c4158585aa0",
                "meta": {
                    "profile": [
                        "https://www.netzwerk-universitaetsmedizin.de/fhir/StructureDefinition/sars-cov-2-rt-pcr"
                    ]
                },
                "category": [
                    {
                        "coding": [
                            {
                                "code": "26436-6",
                                "system": "http://loinc.org"
                            },
                            {
                                "code": "laboratory",
                                "system": "http://terminology.hl7.org/CodeSystem/observation-category"
                            }
                        ]
                    }
                ],
                "code": {
                    "coding": [
                        {
                            "code": "94500-6",
                            "display": "SARS-CoV-2 (COVID-19) RNA [Presence] in Respiratory specimen by NAA with probe detection",
                            "system": "http://loinc.org"
                        }
                    ],
                    "text": "SARS-CoV-2-RNA (PCR)"
                },
                "effectiveDateTime": "2020-11-17T10:50:59+01:00",
                "identifier": [
                    {
                        "assigner": {
                            "reference": "Organization/Charit\u00e9"
                        },
                        "system": "https://www.charite.de/fhir/CodeSystem/lab-identifiers",
                        "type": {
                            "coding": [
                                {
                                    "code": "OBI",
                                    "system": "http://terminology.hl7.org/CodeSystem/v2-0203"
                                }
                            ]
                        },
                        "value": "94500-6_SARS-CoV-2-RNA-Presence-in-Respiratory-specimen"
                    }
                ],
                "status": "final",
                "subject": {
                    "reference": "Patient/4aff75a2-c6a0-40a5-abd2-6afe5532bc94"
                },
                "valueCodeableConcept": {
                    "coding": [
                        {
                            "code": "260373001",
                            "display": "Detected (qualifier value)",
                            "system": "http://snomed.info/sct"
                        }
                    ],
                    "text": "SARS-CoV-2-RNA positiv"
                },
                "resourceType": "Observation"
            }
        },
        {
            "request": {
                "method": "PUT",
                "url": "Observation/1ed8e256-c754-4b29-b043-c3e09589ffd4"
            },
            "resource": {
                "id": "1ed8e256-c754-4b29-b043-c3e09589ffd4",
                "meta": {
                    "profile": [
                        "https://www.netzwerk-universitaetsmedizin.de/fhir/StructureDefinition/sars-cov-2-ab-ser-pl-ql-ia"
                    ]
                },
                "category": [
                    {
                        "coding": [
                            {
                                "code": "26436-6",
                                "system": "http://loinc.org"
                            },
                            {
                                "code": "laboratory",
                                "system": "http://terminology.hl7.org/CodeSystem/observation-category"
                            }
                        ]
                    }
                ],
                "code": {
                    "coding": [
                        {
                            "code": "94762-2",
                            "display": "SARS-CoV-2 (COVID-19) Ab [Presence] in Serum or Plasma by Immunoassay",
                            "system": "http://loinc.org"
                        }
                    ],
                    "text": "SARS-CoV-2 antibodies qualitative"
                },
                "effectiveDateTime": "2020-11-17T10:50:59+01:00",
                "identifier": [
                    {
                        "assigner": {
                            "reference": "Organization/Charit\u00e9"
                        },
                        "system": "https://www.charite.de/fhir/CodeSystem/lab-identifiers",
                        "type": {
                            "coding": [
                                {
                                    "code": "OBI",
                                    "system": "http://terminology.hl7.org/CodeSystem/v2-0203"
                                }
                            ]
                        },
                        "value": "94762-2_SARS-CoV-2-Ab-Ql"
                    }
                ],
                "status": "final",
                "subject": {
                    "reference": "Patient/4aff75a2-c6a0-40a5-abd2-6afe5532bc94"
                },
                "valueCodeableConcept": {
                    "coding": [
                        {
                            "code": "260415000",
                            "display": "Not detected (qualifier value)",
                            "system": "http://snomed.info/sct"
                        }
                    ]
                },
                "resourceType": "Observation"
            }
        },
        {
            "request": {
                "method": "PUT",
                "url": "Observation/0be941e7-8d51-472d-a184-fd0120557afc"
            },
            "resource": {
                "id": "0be941e7-8d51-472d-a184-fd0120557afc",
                "meta": {
                    "profile": [
                        "https://www.netzwerk-universitaetsmedizin.de/fhir/StructureDefinition/sars-cov-2-iga-ser-pl-ql-ia"
                    ]
                },
                "category": [
                    {
                        "coding": [
                            {
                                "code": "26436-6",
                                "system": "http://loinc.org"
                            },
                            {
                                "code": "laboratory",
                                "system": "http://terminology.hl7.org/CodeSystem/observation-category"
                            }
                        ]
                    }
                ],
                "code": {
                    "coding": [
                        {
                            "code": "94562-6",
                            "display": "SARS-CoV-2 (COVID-19) IgA Ab [Presence] in Serum or Plasma by Immunoassay",
                            "system": "http://loinc.org"
                        }
                    ],
                    "text": "SARS-CoV-2 IgA antibodies qualitative"
                },
                "effectiveDateTime": "2020-11-17T10:50:59+01:00",
                "identifier": [
                    {
                        "assigner": {
                            "reference": "Organization/Charit\u00e9"
                        },
                        "system": "https://www.charite.de/fhir/CodeSystem/lab-identifiers",
                        "type": {
                            "coding": [
                                {
                                    "code": "OBI",
                                    "system": "http://terminology.hl7.org/CodeSystem/v2-0203"
                                }
                            ]
                        },
                        "value": "94562-6_SARS-CoV-2-IgA-Ql"
                    }
                ],
                "status": "final",
                "subject": {
                    "reference": "Patient/4aff75a2-c6a0-40a5-abd2-6afe5532bc94"
                },
                "valueCodeableConcept": {
                    "coding": [
                        {
                            "code": "260415000",
                            "display": "Not detected (qualifier value)",
                            "system": "http://snomed.info/sct"
                        }
                    ]
                },
                "resourceType": "Observation"
            }
        },
        {
            "request": {
                "method": "PUT",
                "url": "Observation/3bb59325-30ca-40b5-b479-54115b784900"
            },
            "resource": {
                "id": "3bb59325-30ca-40b5-b479-54115b784900",
                "meta": {
                    "profile": [
                        "https://www.netzwerk-universitaetsmedizin.de/fhir/StructureDefinition/sars-cov-2-igg-ser-pl-ql-ia"
                    ]
                },
                "category": [
                    {
                        "coding": [
                            {
                                "code": "26436-6",
                                "system": "http://loinc.org"
                            },
                            {
                                "code": "laboratory",
                                "system": "http://terminology.hl7.org/CodeSystem/observation-category"
                            }
                        ]
                    }
                ],
                "code": {
                    "coding": [
                        {
                            "code": "94563-4",
                            "display": "SARS-CoV-2 (COVID-19) IgG Ab [Presence] in Serum or Plasma by Immunoassay",
                            "system": "http://loinc.org"
                        }
                    ],
                    "text": "SARS-CoV-2 IgG antibodies qualitative"
                },
                "effectiveDateTime": "2020-11-17T10:50:59+01:00",
                "identifier": [
                    {
                        "assigner": {
                            "reference": "Organization/Charit\u00e9"
                        },
                        "system": "https://www.charite.de/fhir/CodeSystem/lab-identifiers",
                        "type": {
                            "coding": [
                                {
                                    "code": "OBI",
                                    "system": "http://terminology.hl7.org/CodeSystem/v2-0203"
                                }
                            ]
                        },
                        "value": "94563-4_SARS-CoV-2-IgG-Ql"
                    }
                ],
                "status": "final",
                "subject": {
                    "reference": "Patient/4aff75a2-c6a0-40a5-abd2-6afe5532bc94"
                },
                "valueCodeableConcept": {
                    "coding": [
                        {
                            "code": "260415000",
                            "display": "Not detected (qualifier value)",
                            "system": "http://snomed.info/sct"
                        }
                    ]
                },
                "resourceType": "Observation"
            }
        },
        {
            "request": {
                "method": "PUT",
                "url": "Observation/ba2119f7-8a44-4e7c-97c8-014b971f3aa7"
            },
            "resource": {
                "id": "ba2119f7-8a44-4e7c-97c8-014b971f3aa7",
                "meta": {
                    "profile": [
                        "https://www.netzwerk-universitaetsmedizin.de/fhir/StructureDefinition/sars-cov-2-igm-ser-pl-ql-ia"
                    ]
                },
                "category": [
                    {
                        "coding": [
                            {
                                "code": "26436-6",
                                "system": "http://loinc.org"
                            },
                            {
                                "code": "laboratory",
                                "system": "http://terminology.hl7.org/CodeSystem/observation-category"
                            }
                        ]
                    }
                ],
                "code": {
                    "coding": [
                        {
                            "code": "94564-2",
                            "display": "SARS-CoV-2 (COVID-19) IgM Ab [Presence] in Serum or Plasma by Immunoassay",
                            "system": "http://loinc.org"
                        }
                    ],
                    "text": "SARS-CoV-2 IgM antibodies qualitative"
                },
                "effectiveDateTime": "2020-11-17T10:50:59+01:00",
                "identifier": [
                    {
                        "assigner": {
                            "reference": "Organization/Charit\u00e9"
                        },
                        "system": "https://www.charite.de/fhir/CodeSystem/lab-identifiers",
                        "type": {
                            "coding": [
                                {
                                    "code": "OBI",
                                    "system": "http://terminology.hl7.org/CodeSystem/v2-0203"
                                }
                            ]
                        },
                        "value": "94564-2_SARS-CoV-2-IgM-Ql"
                    }
                ],
                "status": "final",
                "subject": {
                    "reference": "Patient/4aff75a2-c6a0-40a5-abd2-6afe5532bc94"
                },
                "valueCodeableConcept": {
                    "coding": [
                        {
                            "code": "419984006",
                            "display": "\tInconclusive (qualifier value)",
                            "system": "http://snomed.info/sct"
                        }
                    ]
                },
                "resourceType": "Observation"
            }
        },
        {
            "request": {
                "method": "PUT",
                "url": "Observation/59af9e00-d2c8-4800-82b0-a92a3cfcd330"
            },
            "resource": {
                "id": "59af9e00-d2c8-4800-82b0-a92a3cfcd330",
                "meta": {
                    "profile": [
                        "https://www.netzwerk-universitaetsmedizin.de/fhir/StructureDefinition/sars-cov-2-ab-pnl-ser-pl-ia"
                    ]
                },
                "category": [
                    {
                        "coding": [
                            {
                                "code": "26436-6",
                                "system": "http://loinc.org"
                            },
                            {
                                "code": "laboratory",
                                "system": "http://terminology.hl7.org/CodeSystem/observation-category"
                            }
                        ]
                    }
                ],
                "code": {
                    "coding": [
                        {
                            "code": "94504-8",
                            "display": "SARS-CoV-2 (COVID-19) Ab panel - Serum or Plasma by Immunoassay",
                            "system": "http://loinc.org"
                        }
                    ],
                    "text": "SARS-CoV-2 antibodies panel"
                },
                "effectiveDateTime": "2020-11-17T10:50:59+01:00",
                "hasMember": [
                    {
                        "reference": "Observation/1ed8e256-c754-4b29-b043-c3e09589ffd4"
                    },
                    {
                        "reference": "Observation/0be941e7-8d51-472d-a184-fd0120557afc"
                    },
                    {
                        "reference": "Observation/3bb59325-30ca-40b5-b479-54115b784900"
                    },
                    {
                        "reference": "Observation/ba2119f7-8a44-4e7c-97c8-014b971f3aa7"
                    }
                ],
                "identifier": [
                    {
                        "assigner": {
                            "reference": "Organization/Charit\u00e9"
                        },
                        "system": "https://www.charite.de/fhir/CodeSystem/lab-identifiers",
                        "type": {
                            "coding": [
                                {
                                    "code": "OBI",
                                    "system": "http://terminology.hl7.org/CodeSystem/v2-0203"
                                }
                            ]
                        },
                        "value": "94504-8_SARS-CoV-2-Ab-Panel"
                    }
                ],
                "status": "final",
                "subject": {
                    "reference": "Patient/4aff75a2-c6a0-40a5-abd2-6afe5532bc94"
                },
                "resourceType": "Observation"
            }
        },
        {
            "request": {
                "method": "POST",
                "url": "MedicationStatement"
            },
            "resource": {
                "id": "69beb450-845f-400a-bf67-6bcfbedca6a9",
                "meta": {
                    "profile": [
                        "https://www.netzwerk-universitaetsmedizin.de/fhir/StructureDefinition/pharmacological-therapy"
                    ]
                },
                "effectiveDateTime": "2020-11-17T10:50:59+01:00",
                "medicationCodeableConcept": {
                    "coding": [
                        {
                            "code": "416897008",
                            "display": "Product containing tumor necrosis factor alpha inhibitor (product)",
                            "system": "http://snomed.info/sct"
                        },
                        {
                            "code": "L04AB",
                            "display": "Tumornekrosefaktor alpha(TNF-alpha)-Inhibitoren",
                            "system": "http://fhir.de/CodeSystem/dimdi/atc"
                        }
                    ],
                    "text": "Anti-TNF-alpha inhibitors"
                },
                "status": "active",
                "subject": {
                    "reference": "Patient/4aff75a2-c6a0-40a5-abd2-6afe5532bc94"
                },
                "resourceType": "MedicationStatement"
            }
        },
        {
            "request": {
                "method": "POST",
                "url": "MedicationStatement"
            },
            "resource": {
                "id": "5fcaaee5-c56b-4dcc-9224-ced169a49f7d",
                "meta": {
                    "profile": [
                        "https://www.netzwerk-universitaetsmedizin.de/fhir/StructureDefinition/pharmacological-therapy-ace-inhibitors"
                    ]
                },
                "effectiveDateTime": "2020-11-17T10:50:59+01:00",
                "medicationCodeableConcept": {
                    "coding": [
                        {
                            "code": "41549009",
                            "display": "Product containing angiotensin-converting enzyme inhibitor (product)",
                            "system": "http://snomed.info/sct"
                        },
                        {
                            "code": "C09A",
                            "display": "ACE-HEMMER, REIN",
                            "system": "http://fhir.de/CodeSystem/dimdi/atc"
                        }
                    ],
                    "text": "ACE inhibitors"
                },
                "status": "stopped",
                "subject": {
                    "reference": "Patient/4aff75a2-c6a0-40a5-abd2-6afe5532bc94"
                },
                "resourceType": "MedicationStatement"
            }
        },
        {
            "request": {
                "method": "POST",
                "url": "MedicationStatement"
            },
            "resource": {
                "id": "db5610a4-3b1f-4e98-9eec-9b24d45083c6",
                "meta": {
                    "profile": [
                        "https://www.netzwerk-universitaetsmedizin.de/fhir/StructureDefinition/pharmacological-therapy-immunoglobulins"
                    ]
                },
                "effectiveDateTime": "2020-11-17T10:50:59+01:00",
                "medicationCodeableConcept": {
                    "coding": [
                        {
                            "code": "333710000",
                            "display": "Product containing immunoglobulin (product)",
                            "system": "http://snomed.info/sct"
                        },
                        {
                            "code": "J06B",
                            "display": "IMMUNGLOBULINE",
                            "system": "http://fhir.de/CodeSystem/dimdi/atc"
                        }
                    ],
                    "text": "immunoglobulins"
                },
                "status": "unknown",
                "subject": {
                    "reference": "Patient/4aff75a2-c6a0-40a5-abd2-6afe5532bc94"
                },
                "resourceType": "MedicationStatement"
            }
        },
        {
            "request": {
                "method": "POST",
                "url": "MedicationStatement"
            },
            "resource": {
                "id": "ec014534-d266-4d22-87b4-a0af2cdab5df",
                "meta": {
                    "profile": [
                        "https://www.netzwerk-universitaetsmedizin.de/fhir/StructureDefinition/pharmacological-therapy-anticoagulants"
                    ]
                },
                "effectiveDateTime": "2020-11-17T10:50:59+01:00",
                "medicationCodeableConcept": {
                    "coding": [
                        {
                            "code": "410965002",
                            "display": "Product containing bemiparin (medicinal product)",
                            "system": "http://snomed.info/sct"
                        },
                        {
                            "code": "B01AB12",
                            "display": "Bemiparin",
                            "system": "http://fhir.de/CodeSystem/dimdi/atc"
                        }
                    ],
                    "text": "Low-molecular-weight heparin"
                },
                "reasonCode": [
                    {
                        "coding": [
                            {
                                "code": "360271000",
                                "display": "Prophylaxis - procedure intent (qualifier value)",
                                "system": "http://snomed.info/sct"
                            }
                        ]
                    }
                ],
                "status": "active",
                "subject": {
                    "reference": "Patient/4aff75a2-c6a0-40a5-abd2-6afe5532bc94"
                },
                "resourceType": "MedicationStatement"
            }
        },
        {
            "request": {
                "method": "POST",
                "url": "Condition"
            },
            "resource": {
                "id": "095f43be-311b-431b-b7eb-8b8cd31fc350",
                "meta": {
                    "profile": [
                        "https://www.netzwerk-universitaetsmedizin.de/fhir/StructureDefinition/dependence-on-ventilator"
                    ]
                },
                "category": [
                    {
                        "coding": [
                            {
                                "code": "404989005",
                                "display": "Ventilation status (observable entity)",
                                "system": "http://snomed.info/sct"
                            }
                        ]
                    }
                ],
                "code": {
                    "coding": [
                        {
                            "code": "444932008",
                            "display": "Dependence on ventilator (finding)",
                            "system": "http://snomed.info/sct"
                        }
                    ]
                },
                "recordedDate": "2020-11-17T10:50:59+01:00",
                "subject": {
                    "reference": "Patient/4aff75a2-c6a0-40a5-abd2-6afe5532bc94"
                },
                "verificationStatus": {
                    "coding": [
                        {
                            "code": "refuted",
                            "display": "Refuted",
                            "system": "http://terminology.hl7.org/CodeSystem/condition-ver-status"
                        },
                        {
                            "code": "410594000",
                            "display": "Definitely NOT present (qualifier value)",
                            "system": "http://snomed.info/sct"
                        }
                    ]
                },
                "resourceType": "Condition"
            }
        },
        {
            "request": {
                "method": "PUT",
                "url": "Observation/d9867f22-11b8-419e-bed6-1afef87eba14"
            },
            "resource": {
                "id": "d9867f22-11b8-419e-bed6-1afef87eba14",
                "meta": {
                    "profile": [
                        "https://www.netzwerk-universitaetsmedizin.de/fhir/StructureDefinition/discharge-disposition"
                    ]
                },
                "category": [
                    {
                        "coding": [
                            {
                                "code": "social-history",
                                "system": "http://terminology.hl7.org/CodeSystem/observation-category"
                            }
                        ]
                    }
                ],
                "code": {
                    "coding": [
                        {
                            "code": "55128-3",
                            "display": "Discharge disposition",
                            "system": "http://loinc.org"
                        }
                    ],
                    "text": "Type of discharge"
                },
                "effectiveDateTime": "2020-11-17T10:50:59+01:00",
                "identifier": [
                    {
                        "assigner": {
                            "reference": "Organization/Charit\u00e9"
                        },
                        "system": "https://www.charite.de/fhir/CodeSystem/observation-identifiers",
                        "type": {
                            "coding": [
                                {
                                    "code": "OBI",
                                    "system": "http://terminology.hl7.org/CodeSystem/v2-0203"
                                }
                            ]
                        },
                        "value": "55128-3_DischargeDisposition"
                    }
                ],
                "status": "final",
                "subject": {
                    "reference": "Patient/4aff75a2-c6a0-40a5-abd2-6afe5532bc94"
                },
                "valueCodeableConcept": {
                    "coding": [
                        {
                            "code": "306237005",
                            "display": "Referral to palliative care service (procedure)",
                            "system": "http://snomed.info/sct"
                        }
                    ]
                },
                "resourceType": "Observation"
            }
        },
        {
            "request": {
                "method": "PUT",
                "url": "Observation/d5c7b537-9a5f-4189-a41c-41d3ccfa645e"
            },
            "resource": {
                "id": "d5c7b537-9a5f-4189-a41c-41d3ccfa645e",
                "meta": {
                    "profile": [
                        "https://www.netzwerk-universitaetsmedizin.de/fhir/StructureDefinition/study-inclusion-covid-19"
                    ]
                },
                "category": [
                    {
                        "coding": [
                            {
                                "code": "survey",
                                "system": "http://terminology.hl7.org/CodeSystem/observation-category"
                            }
                        ]
                    }
                ],
                "code": {
                    "coding": [
                        {
                            "code": "02",
                            "display": "Study inclusion due to Covid-19",
                            "system": "https://www.netzwerk-universitaetsmedizin.de/fhir/CodeSystem/ecrf-parameter-codes"
                        }
                    ],
                    "text": "Confirmed Covid-19 diagnosis as main reason for enrolment in the study"
                },
                "effectiveDateTime": "2020-11-17T10:50:59+01:00",
                "identifier": [
                    {
                        "assigner": {
                            "reference": "Organization/Charit\u00e9"
                        },
                        "system": "https://www.charite.de/fhir/CodeSystem/observation-identifiers",
                        "type": {
                            "coding": [
                                {
                                    "code": "OBI",
                                    "system": "http://terminology.hl7.org/CodeSystem/v2-0203"
                                }
                            ]
                        },
                        "value": "ecrf_02_StudyInclusionCovid19"
                    }
                ],
                "status": "final",
                "subject": {
                    "reference": "Patient/4aff75a2-c6a0-40a5-abd2-6afe5532bc94"
                },
                "valueCodeableConcept": {
                    "coding": [
                        {
                            "code": "373066001",
                            "display": "Yes (qualifier value)",
                            "system": "http://snomed.info/sct"
                        }
                    ],
                    "text": "Covid-19 as primary reason for study inclusion"
                },
                "resourceType": "Observation"
            }
        },
        {
            "request": {
                "method": "PUT",
                "url": "Observation/34d67390-6992-4e9f-814b-5acdcc54b23a"
            },
            "resource": {
                "id": "34d67390-6992-4e9f-814b-5acdcc54b23a",
                "meta": {
                    "profile": [
                        "https://www.netzwerk-universitaetsmedizin.de/fhir/StructureDefinition/interventional-clinical-trial-participation"
                    ]
                },
                "category": [
                    {
                        "coding": [
                            {
                                "code": "survey",
                                "system": "http://terminology.hl7.org/CodeSystem/observation-category"
                            }
                        ]
                    }
                ],
                "code": {
                    "coding": [
                        {
                            "code": "03",
                            "display": "Participation in interventional clinical trials",
                            "system": "https://www.netzwerk-universitaetsmedizin.de/fhir/CodeSystem/ecrf-parameter-codes"
                        }
                    ],
                    "text": "Has the patient participated in one or more interventional clinical trials?"
                },
                "effectiveDateTime": "2020-11-17T10:50:59+01:00",
                "identifier": [
                    {
                        "assigner": {
                            "reference": "Organization/Charit\u00e9"
                        },
                        "system": "https://www.charite.de/fhir/CodeSystem/observation-identifiers",
                        "type": {
                            "coding": [
                                {
                                    "code": "OBI",
                                    "system": "http://terminology.hl7.org/CodeSystem/v2-0203"
                                }
                            ]
                        },
                        "value": "ecrf_03_InterventionalClinicalTrialsParticipation"
                    }
                ],
                "status": "final",
                "subject": {
                    "reference": "Patient/4aff75a2-c6a0-40a5-abd2-6afe5532bc94"
                },
                "valueCodeableConcept": {
                    "coding": [
                        {
                            "code": "373067005",
                            "display": "No (qualifier value)",
                            "system": "http://snomed.info/sct"
                        }
                    ],
                    "text": "Patient is not enrolled in other studies"
                },
                "resourceType": "Observation"
            }
        },
        {
            "request": {
                "method": "POST",
                "url": "Condition"
            },
            "resource": {
                "id": "7a950f13-4288-42c3-87f6-1f0427a3d934",
                "meta": {
                    "profile": [
                        "https://www.netzwerk-universitaetsmedizin.de/fhir/StructureDefinition/symptoms-covid-19"
                    ]
                },
                "extension": [
                    {
                        "url": "https://www.netzwerk-universitaetsmedizin.de/fhir/StructureDefinition/uncertainty-of-presence",
                        "valueCodeableConcept": {
                            "coding": [
                                {
                                    "code": "261665006",
                                    "display": "Unknown (qualifier value)",
                                    "system": "http://snomed.info/sct"
                                }
                            ],
                            "text": "Presence of symptom is unknown."
                        }
                    }
                ],
                "category": [
                    {
                        "coding": [
                            {
                                "code": "75325-1",
                                "display": "Symptom",
                                "system": "http://loinc.org"
                            }
                        ]
                    }
                ],
                "code": {
                    "coding": [
                        {
                            "code": "36955009",
                            "display": "Loss of taste (finding)",
                            "system": "http://snomed.info/sct"
                        }
                    ]
                },
                "recordedDate": "2020-11-17T10:50:59+01:00",
                "subject": {
                    "reference": "Patient/4aff75a2-c6a0-40a5-abd2-6afe5532bc94"
                },
                "resourceType": "Condition"
            }
        },
        {
            "request": {
                "method": "POST",
                "url": "Condition"
            },
            "resource": {
                "id": "5be7a68f-2c7b-4e8a-9b47-8c3303c3d02a",
                "meta": {
                    "profile": [
                        "https://www.netzwerk-universitaetsmedizin.de/fhir/StructureDefinition/symptoms-covid-19"
                    ]
                },
                "extension": [
                    {
                        "url": "https://www.netzwerk-universitaetsmedizin.de/fhir/StructureDefinition/uncertainty-of-presence",
                        "valueCodeableConcept": {
                            "coding": [
                                {
                                    "code": "261665006",
                                    "display": "Unknown (qualifier value)",
                                    "system": "http://snomed.info/sct"
                                }
                            ],
                            "text": "Presence of symptom is unknown."
                        }
                    }
                ],
                "category": [
                    {
                        "coding": [
                            {
                                "code": "75325-1",
                                "display": "Symptom",
                                "system": "http://loinc.org"
                            }
                        ]
                    }
                ],
                "code": {
                    "coding": [
                        {
                            "code": "21522001",
                            "display": "Abdominal pain (finding)",
                            "system": "http://snomed.info/sct"
                        }
                    ]
                },
                "recordedDate": "2020-11-17T10:50:59+01:00",
                "subject": {
                    "reference": "Patient/4aff75a2-c6a0-40a5-abd2-6afe5532bc94"
                },
                "resourceType": "Condition"
            }
        },
        {
            "request": {
                "method": "POST",
                "url": "Condition"
            },
            "resource": {
                "id": "91165d37-849a-48dd-b0dc-c1cc76e06a96",
                "meta": {
                    "profile": [
                        "https://www.netzwerk-universitaetsmedizin.de/fhir/StructureDefinition/symptoms-covid-19"
                    ]
                },
                "extension": [
                    {
                        "url": "https://www.netzwerk-universitaetsmedizin.de/fhir/StructureDefinition/uncertainty-of-presence",
                        "valueCodeableConcept": {
                            "coding": [
                                {
                                    "code": "261665006",
                                    "display": "Unknown (qualifier value)",
                                    "system": "http://snomed.info/sct"
                                }
                            ],
                            "text": "Presence of symptom is unknown."
                        }
                    }
                ],
                "category": [
                    {
                        "coding": [
                            {
                                "code": "75325-1",
                                "display": "Symptom",
                                "system": "http://loinc.org"
                            }
                        ]
                    }
                ],
                "code": {
                    "coding": [
                        {
                            "code": "40917007",
                            "display": "Clouded consciousness (finding)",
                            "system": "http://snomed.info/sct"
                        }
                    ]
                },
                "recordedDate": "2020-11-17T10:50:59+01:00",
                "subject": {
                    "reference": "Patient/4aff75a2-c6a0-40a5-abd2-6afe5532bc94"
                },
                "resourceType": "Condition"
            }
        },
        {
            "request": {
                "method": "POST",
                "url": "Condition"
            },
            "resource": {
                "id": "0156794b-bcff-4cb1-bfec-428774a8498f",
                "meta": {
                    "profile": [
                        "https://www.netzwerk-universitaetsmedizin.de/fhir/StructureDefinition/symptoms-covid-19"
                    ]
                },
                "category": [
                    {
                        "coding": [
                            {
                                "code": "75325-1",
                                "display": "Symptom",
                                "system": "http://loinc.org"
                            }
                        ]
                    }
                ],
                "clinicalStatus": {
                    "coding": [
                        {
                            "code": "active",
                            "display": "Active",
                            "system": "http://terminology.hl7.org/CodeSystem/condition-clinical"
                        }
                    ]
                },
                "code": {
                    "coding": [
                        {
                            "code": "62315008",
                            "display": "Diarrhea (finding)",
                            "system": "http://snomed.info/sct"
                        }
                    ]
                },
                "recordedDate": "2020-11-17T10:50:59+01:00",
                "subject": {
                    "reference": "Patient/4aff75a2-c6a0-40a5-abd2-6afe5532bc94"
                },
                "verificationStatus": {
                    "coding": [
                        {
                            "code": "confirmed",
                            "display": "Confirmed",
                            "system": "http://terminology.hl7.org/CodeSystem/condition-ver-status"
                        },
                        {
                            "code": "410605003",
                            "display": "Confirmed present (qualifier value)",
                            "system": "http://snomed.info/sct"
                        }
                    ]
                },
                "resourceType": "Condition"
            }
        },
        {
            "request": {
                "method": "POST",
                "url": "Condition"
            },
            "resource": {
                "id": "b38a7410-d429-4734-8e4a-a054649948e9",
                "meta": {
                    "profile": [
                        "https://www.netzwerk-universitaetsmedizin.de/fhir/StructureDefinition/symptoms-covid-19"
                    ]
                },
                "category": [
                    {
                        "coding": [
                            {
                                "code": "75325-1",
                                "display": "Symptom",
                                "system": "http://loinc.org"
                            }
                        ]
                    }
                ],
                "code": {
                    "coding": [
                        {
                            "code": "422400008",
                            "display": "Vomiting (disorder)",
                            "system": "http://snomed.info/sct"
                        }
                    ]
                },
                "recordedDate": "2020-11-17T10:50:59+01:00",
                "subject": {
                    "reference": "Patient/4aff75a2-c6a0-40a5-abd2-6afe5532bc94"
                },
                "verificationStatus": {
                    "coding": [
                        {
                            "code": "refuted",
                            "display": "Refuted",
                            "system": "http://terminology.hl7.org/CodeSystem/condition-ver-status"
                        },
                        {
                            "code": "410594000",
                            "display": "Definitely NOT present (qualifier value)",
                            "system": "http://snomed.info/sct"
                        }
                    ]
                },
                "resourceType": "Condition"
            }
        },
        {
            "request": {
                "method": "POST",
                "url": "Condition"
            },
            "resource": {
                "id": "82e651ea-e799-4b01-8d3c-ebc005be7930",
                "meta": {
                    "profile": [
                        "https://www.netzwerk-universitaetsmedizin.de/fhir/StructureDefinition/symptoms-covid-19"
                    ]
                },
                "category": [
                    {
                        "coding": [
                            {
                                "code": "75325-1",
                                "display": "Symptom",
                                "system": "http://loinc.org"
                            }
                        ]
                    }
                ],
                "clinicalStatus": {
                    "coding": [
                        {
                            "code": "active",
                            "display": "Active",
                            "system": "http://terminology.hl7.org/CodeSystem/condition-clinical"
                        }
                    ]
                },
                "code": {
                    "coding": [
                        {
                            "code": "49727002",
                            "display": "Cough (finding)",
                            "system": "http://snomed.info/sct"
                        }
                    ]
                },
                "recordedDate": "2020-11-17T10:50:59+01:00",
                "severity": {
                    "coding": [
                        {
                            "code": "255604002",
                            "display": "Mild (qualifier value)",
                            "system": "http://snomed.info/sct"
                        }
                    ]
                },
                "subject": {
                    "reference": "Patient/4aff75a2-c6a0-40a5-abd2-6afe5532bc94"
                },
                "verificationStatus": {
                    "coding": [
                        {
                            "code": "confirmed",
                            "display": "Confirmed",
                            "system": "http://terminology.hl7.org/CodeSystem/condition-ver-status"
                        },
                        {
                            "code": "410605003",
                            "display": "Confirmed present (qualifier value)",
                            "system": "http://snomed.info/sct"
                        }
                    ]
                },
                "resourceType": "Condition"
            }
        },
        {
            "request": {
                "method": "POST",
                "url": "Condition"
            },
            "resource": {
                "id": "4e2f68a1-6701-4606-8214-1d5af23bafa4",
                "meta": {
                    "profile": [
                        "https://www.netzwerk-universitaetsmedizin.de/fhir/StructureDefinition/symptoms-covid-19"
                    ]
                },
                "category": [
                    {
                        "coding": [
                            {
                                "code": "75325-1",
                                "display": "Symptom",
                                "system": "http://loinc.org"
                            }
                        ]
                    }
                ],
                "clinicalStatus": {
                    "coding": [
                        {
                            "code": "active",
                            "display": "Active",
                            "system": "http://terminology.hl7.org/CodeSystem/condition-clinical"
                        }
                    ]
                },
                "code": {
                    "coding": [
                        {
                            "code": "267036007",
                            "display": "Dyspnea (finding)",
                            "system": "http://snomed.info/sct"
                        }
                    ]
                },
                "recordedDate": "2020-11-17T10:50:59+01:00",
                "severity": {
                    "coding": [
                        {
                            "code": "442452003",
                            "display": "Life threatening severity (qualifier value)",
                            "system": "http://snomed.info/sct"
                        }
                    ]
                },
                "subject": {
                    "reference": "Patient/4aff75a2-c6a0-40a5-abd2-6afe5532bc94"
                },
                "verificationStatus": {
                    "coding": [
                        {
                            "code": "confirmed",
                            "display": "Confirmed",
                            "system": "http://terminology.hl7.org/CodeSystem/condition-ver-status"
                        },
                        {
                            "code": "410605003",
                            "display": "Confirmed present (qualifier value)",
                            "system": "http://snomed.info/sct"
                        }
                    ]
                },
                "resourceType": "Condition"
            }
        },
        {
            "request": {
                "method": "POST",
                "url": "Condition"
            },
            "resource": {
                "id": "2520758c-fc8d-4c10-aa71-4fb440502417",
                "meta": {
                    "profile": [
                        "https://www.netzwerk-universitaetsmedizin.de/fhir/StructureDefinition/symptoms-covid-19"
                    ]
                },
                "category": [
                    {
                        "coding": [
                            {
                                "code": "75325-1",
                                "display": "Symptom",
                                "system": "http://loinc.org"
                            }
                        ]
                    }
                ],
                "clinicalStatus": {
                    "coding": [
                        {
                            "code": "active",
                            "display": "Active",
                            "system": "http://terminology.hl7.org/CodeSystem/condition-clinical"
                        }
                    ]
                },
                "code": {
                    "coding": [
                        {
                            "code": "422587007",
                            "display": "Nausea (finding)",
                            "system": "http://snomed.info/sct"
                        }
                    ]
                },
                "recordedDate": "2020-11-17T10:50:59+01:00",
                "subject": {
                    "reference": "Patient/4aff75a2-c6a0-40a5-abd2-6afe5532bc94"
                },
                "verificationStatus": {
                    "coding": [
                        {
                            "code": "confirmed",
                            "display": "Confirmed",
                            "system": "http://terminology.hl7.org/CodeSystem/condition-ver-status"
                        },
                        {
                            "code": "410605003",
                            "display": "Confirmed present (qualifier value)",
                            "system": "http://snomed.info/sct"
                        }
                    ]
                },
                "resourceType": "Condition"
            }
        },
        {
            "request": {
                "method": "POST",
                "url": "Condition"
            },
            "resource": {
                "id": "f024a73b-8de8-42a2-9ded-0dc523781fb2",
                "meta": {
                    "profile": [
                        "https://www.netzwerk-universitaetsmedizin.de/fhir/StructureDefinition/symptoms-covid-19"
                    ]
                },
                "category": [
                    {
                        "coding": [
                            {
                                "code": "75325-1",
                                "display": "Symptom",
                                "system": "http://loinc.org"
                            }
                        ]
                    }
                ],
                "clinicalStatus": {
                    "coding": [
                        {
                            "code": "active",
                            "display": "Active",
                            "system": "http://terminology.hl7.org/CodeSystem/condition-clinical"
                        }
                    ]
                },
                "code": {
                    "coding": [
                        {
                            "code": "426000000",
                            "display": "Fever greater than 100.4 Fahrenheit / 38\u00b0 Celsius (finding)",
                            "system": "http://snomed.info/sct"
                        }
                    ]
                },
                "recordedDate": "2020-11-17T10:50:59+01:00",
                "severity": {
                    "coding": [
                        {
                            "code": "6736007",
                            "display": "Moderate (severity modifier) (qualifier value)",
                            "system": "http://snomed.info/sct"
                        }
                    ]
                },
                "subject": {
                    "reference": "Patient/4aff75a2-c6a0-40a5-abd2-6afe5532bc94"
                },
                "verificationStatus": {
                    "coding": [
                        {
                            "code": "confirmed",
                            "display": "Confirmed",
                            "system": "http://terminology.hl7.org/CodeSystem/condition-ver-status"
                        },
                        {
                            "code": "410605003",
                            "display": "Confirmed present (qualifier value)",
                            "system": "http://snomed.info/sct"
                        }
                    ]
                },
                "resourceType": "Condition"
            }
        },
        {
            "request": {
                "method": "POST",
                "url": "Condition"
            },
            "resource": {
                "id": "2be6caba-53b9-4270-896c-f806d72da0f5",
                "meta": {
                    "profile": [
                        "https://www.netzwerk-universitaetsmedizin.de/fhir/StructureDefinition/symptoms-covid-19"
                    ]
                },
                "extension": [
                    {
                        "url": "https://www.netzwerk-universitaetsmedizin.de/fhir/StructureDefinition/uncertainty-of-presence",
                        "valueCodeableConcept": {
                            "coding": [
                                {
                                    "code": "261665006",
                                    "display": "Unknown (qualifier value)",
                                    "system": "http://snomed.info/sct"
                                }
                            ],
                            "text": "Presence of symptom is unknown."
                        }
                    }
                ],
                "category": [
                    {
                        "coding": [
                            {
                                "code": "75325-1",
                                "display": "Symptom",
                                "system": "http://loinc.org"
                            }
                        ]
                    }
                ],
                "code": {
                    "coding": [
                        {
                            "code": "25064002",
                            "display": "Headache (finding)",
                            "system": "http://snomed.info/sct"
                        }
                    ]
                },
                "recordedDate": "2020-11-17T10:50:59+01:00",
                "subject": {
                    "reference": "Patient/4aff75a2-c6a0-40a5-abd2-6afe5532bc94"
                },
                "resourceType": "Condition"
            }
        },
        {
            "request": {
                "method": "POST",
                "url": "Procedure"
            },
            "resource": {
                "id": "f9f61b80-a383-40d4-9aaa-62437b0db40b",
                "meta": {
                    "profile": [
                        "https://www.netzwerk-universitaetsmedizin.de/fhir/StructureDefinition/dialysis"
                    ]
                },
                "category": {
                    "coding": [
                        {
                            "code": "277132007",
                            "display": "Therapeutic procedure (procedure)",
                            "system": "http://snomed.info/sct"
                        }
                    ]
                },
                "code": {
                    "coding": [
                        {
                            "code": "108241001",
                            "display": "Dialysis procedure (procedure)",
                            "system": "http://snomed.info/sct"
                        }
                    ],
                    "text": "Dialysis"
                },
                "performedDateTime": "2020-11-17T10:50:59+01:00",
                "status": "in-progress",
                "subject": {
                    "reference": "Patient/4aff75a2-c6a0-40a5-abd2-6afe5532bc94"
                },
                "resourceType": "Procedure"
            }
        },
        {
            "request": {
                "method": "POST",
                "url": "Procedure"
            },
            "resource": {
                "id": "332ed8d4-6009-4b08-8981-0485b98b9cc0",
                "meta": {
                    "profile": [
                        "https://www.netzwerk-universitaetsmedizin.de/fhir/StructureDefinition/apheresis"
                    ]
                },
                "category": {
                    "coding": [
                        {
                            "code": "277132007",
                            "display": "Therapeutic procedure (procedure)",
                            "system": "http://snomed.info/sct"
                        }
                    ]
                },
                "code": {
                    "coding": [
                        {
                            "code": "127788007",
                            "display": "Apheresis (procedure)",
                            "system": "http://snomed.info/sct"
                        }
                    ],
                    "text": "Apheresis"
                },
                "performedDateTime": "2020-11-17T10:50:59+01:00",
                "status": "in-progress",
                "subject": {
                    "reference": "Patient/4aff75a2-c6a0-40a5-abd2-6afe5532bc94"
                },
                "resourceType": "Procedure"
            }
        },
        {
            "request": {
                "method": "POST",
                "url": "Procedure"
            },
            "resource": {
                "id": "648a9267-520a-4032-a5c5-c6be023b94b4",
                "meta": {
                    "profile": [
                        "https://www.netzwerk-universitaetsmedizin.de/fhir/StructureDefinition/prone-position"
                    ]
                },
                "category": {
                    "coding": [
                        {
                            "code": "225287004",
                            "display": "Procedures relating to positioning and support (procedure)",
                            "system": "http://snomed.info/sct"
                        }
                    ]
                },
                "code": {
                    "coding": [
                        {
                            "code": "431182000",
                            "display": "Placing subject in prone position (procedure)",
                            "system": "http://snomed.info/sct"
                        }
                    ],
                    "text": "Prone position"
                },
                "performedDateTime": "2020-11-17T10:50:59+01:00",
                "status": "in-progress",
                "subject": {
                    "reference": "Patient/4aff75a2-c6a0-40a5-abd2-6afe5532bc94"
                },
                "resourceType": "Procedure"
            }
        },
        {
            "request": {
                "method": "POST",
                "url": "Procedure"
            },
            "resource": {
                "id": "d6cd453b-dee1-460c-9223-1dc3bdd88977",
                "meta": {
                    "profile": [
                        "https://www.netzwerk-universitaetsmedizin.de/fhir/StructureDefinition/extracorporeal-membrane-oxygenation"
                    ]
                },
                "category": {
                    "coding": [
                        {
                            "code": "277132007",
                            "display": "Therapeutic procedure (procedure)",
                            "system": "http://snomed.info/sct"
                        }
                    ]
                },
                "code": {
                    "coding": [
                        {
                            "code": "233573008",
                            "display": "Extracorporeal membrane oxygenation (procedure)",
                            "system": "http://snomed.info/sct"
                        }
                    ],
                    "text": "ECMO"
                },
                "performedDateTime": "2020-11-17T10:50:59+01:00",
                "status": "in-progress",
                "subject": {
                    "reference": "Patient/4aff75a2-c6a0-40a5-abd2-6afe5532bc94"
                },
                "resourceType": "Procedure"
            }
        },
        {
            "request": {
                "method": "PUT",
                "url": "Observation/c7e4ffaf-abc7-40d4-8518-c0ad57260685"
            },
            "resource": {
                "id": "c7e4ffaf-abc7-40d4-8518-c0ad57260685",
                "meta": {
                    "profile": [
                        "https://www.netzwerk-universitaetsmedizin.de/fhir/StructureDefinition/patient-in-icu"
                    ]
                },
                "category": [
                    {
                        "coding": [
                            {
                                "code": "survey",
                                "display": "Survey",
                                "system": "http://terminology.hl7.org/CodeSystem/observation-category"
                            }
                        ]
                    }
                ],
                "code": {
                    "coding": [
                        {
                            "code": "01",
                            "display": "Is the patient in the intensive care unit?",
                            "system": "https://www.netzwerk-universitaetsmedizin.de/fhir/CodeSystem/ecrf-parameter-codes"
                        }
                    ]
                },
                "effectiveDateTime": "2020-11-17T10:50:59+01:00",
                "status": "final",
                "subject": {
                    "reference": "Patient/4aff75a2-c6a0-40a5-abd2-6afe5532bc94"
                },
                "valueCodeableConcept": {
                    "coding": [
                        {
                            "code": "373067005",
                            "display": "No (qualifier value)",
                            "system": "http://snomed.info/sct"
                        }
                    ]
                },
                "resourceType": "Observation"
            }
        },
        {
            "request": {
                "method": "POST",
                "url": "Procedure"
            },
            "resource": {
                "id": "e69c70e9-ee5f-4ece-8f22-c81c8f3d4cfa",
                "meta": {
                    "profile": [
                        "https://www.netzwerk-universitaetsmedizin.de/fhir/StructureDefinition/respiratory-therapies"
                    ]
                },
                "category": {
                    "coding": [
                        {
                            "code": "277132007",
                            "display": "Therapeutic procedure (procedure)",
                            "system": "http://snomed.info/sct"
                        }
                    ]
                },
                "code": {
                    "coding": [
                        {
                            "code": "40617009",
                            "display": "Artificial respiration (procedure)",
                            "system": "http://snomed.info/sct"
                        }
                    ],
                    "text": "Invasive ventilation (orotracheal)"
                },
                "performedDateTime": "2020-11-17T10:50:59+01:00",
                "status": "in-progress",
                "subject": {
                    "reference": "Patient/4aff75a2-c6a0-40a5-abd2-6afe5532bc94"
                },
                "usedCode": [
                    {
                        "coding": [
                            {
                                "code": "26412008",
                                "display": "Endotracheal tube, device (physical object)",
                                "system": "http://snomed.info/sct"
                            }
                        ]
                    }
                ],
                "resourceType": "Procedure"
            }
        },
        {
            "request": {
                "method": "PUT",
                "url": "Observation/31699afd-02f0-482c-850a-557571093691"
            },
            "resource": {
                "id": "31699afd-02f0-482c-850a-557571093691",
                "meta": {
                    "profile": [
                        "https://www.netzwerk-universitaetsmedizin.de/fhir/StructureDefinition/carbon-dioxide-partial-pressure"
                    ]
                },
                "category": [
                    {
                        "coding": [
                            {
                                "code": "26436-6",
                                "system": "http://loinc.org"
                            },
                            {
                                "code": "laboratory",
                                "system": "http://terminology.hl7.org/CodeSystem/observation-category"
                            },
                            {
                                "code": "18767-4",
                                "system": "http://loinc.org"
                            }
                        ]
                    }
                ],
                "code": {
                    "coding": [
                        {
                            "code": "2019-8",
                            "display": "Carbon dioxide [Partial pressure] in Arterial blood",
                            "system": "http://loinc.org"
                        }
                    ],
                    "text": "paCO2"
                },
                "effectiveDateTime": "2020-11-17T10:50:59+01:00",
                "identifier": [
                    {
                        "assigner": {
                            "reference": "Organization/Charit\u00e9"
                        },
                        "system": "https://www.charite.de/fhir/CodeSystem/lab-identifiers",
                        "type": {
                            "coding": [
                                {
                                    "code": "OBI",
                                    "system": "http://terminology.hl7.org/CodeSystem/v2-0203"
                                }
                            ]
                        },
                        "value": "2019-8_paCO2"
                    }
                ],
                "status": "final",
                "subject": {
                    "reference": "Patient/4aff75a2-c6a0-40a5-abd2-6afe5532bc94"
                },
                "valueQuantity": {
                    "code": "mm[Hg]",
                    "system": "http://unitsofmeasure.org",
                    "unit": "mmHg",
                    "value": 36
                },
                "resourceType": "Observation"
            }
        },
        {
            "request": {
                "method": "PUT",
                "url": "Observation/8ccd7881-d397-4673-8c6d-4bce063d49f6"
            },
            "resource": {
                "id": "8ccd7881-d397-4673-8c6d-4bce063d49f6",
                "meta": {
                    "profile": [
                        "https://www.netzwerk-universitaetsmedizin.de/fhir/StructureDefinition/oxygen-partial-pressure"
                    ]
                },
                "category": [
                    {
                        "coding": [
                            {
                                "code": "26436-6",
                                "system": "http://loinc.org"
                            },
                            {
                                "code": "laboratory",
                                "system": "http://terminology.hl7.org/CodeSystem/observation-category"
                            },
                            {
                                "code": "18767-4",
                                "system": "http://loinc.org"
                            }
                        ]
                    }
                ],
                "code": {
                    "coding": [
                        {
                            "code": "2703-7",
                            "display": "Oxygen [Partial pressure] in Arterial blood",
                            "system": "http://loinc.org"
                        }
                    ],
                    "text": "paO2"
                },
                "effectiveDateTime": "2020-11-17T10:50:59+01:00",
                "identifier": [
                    {
                        "assigner": {
                            "reference": "Organization/Charit\u00e9"
                        },
                        "system": "https://www.charite.de/fhir/CodeSystem/lab-identifiers",
                        "type": {
                            "coding": [
                                {
                                    "code": "OBI",
                                    "system": "http://terminology.hl7.org/CodeSystem/v2-0203"
                                }
                            ]
                        },
                        "value": "2703-7_paO2"
                    }
                ],
                "status": "final",
                "subject": {
                    "reference": "Patient/4aff75a2-c6a0-40a5-abd2-6afe5532bc94"
                },
                "valueQuantity": {
                    "code": "mm[Hg]",
                    "system": "http://unitsofmeasure.org",
                    "unit": "mmHg",
                    "value": 84
                },
                "resourceType": "Observation"
            }
        },
        {
            "request": {
                "method": "PUT",
                "url": "Observation/3a284d18-e1a2-4922-8c3c-fe85b6c876c8"
            },
            "resource": {
                "id": "3a284d18-e1a2-4922-8c3c-fe85b6c876c8",
                "meta": {
                    "profile": [
                        "https://www.netzwerk-universitaetsmedizin.de/fhir/StructureDefinition/inhaled-oxygen-concentration"
                    ]
                },
                "category": [
                    {
                        "coding": [
                            {
                                "code": "26436-6",
                                "system": "http://loinc.org"
                            },
                            {
                                "code": "laboratory",
                                "system": "http://terminology.hl7.org/CodeSystem/observation-category"
                            },
                            {
                                "code": "18767-4",
                                "system": "http://loinc.org"
                            }
                        ]
                    }
                ],
                "code": {
                    "coding": [
                        {
                            "code": "3150-0",
                            "display": "Inhaled oxygen concentration",
                            "system": "http://loinc.org"
                        }
                    ],
                    "text": "FiO2"
                },
                "effectiveDateTime": "2020-11-17T10:50:59+01:00",
                "identifier": [
                    {
                        "assigner": {
                            "reference": "Organization/Charit\u00e9"
                        },
                        "system": "https://www.charite.de/fhir/CodeSystem/lab-identifiers",
                        "type": {
                            "coding": [
                                {
                                    "code": "OBI",
                                    "system": "http://terminology.hl7.org/CodeSystem/v2-0203"
                                }
                            ]
                        },
                        "value": "3150-0_FiO2"
                    }
                ],
                "status": "final",
                "subject": {
                    "reference": "Patient/4aff75a2-c6a0-40a5-abd2-6afe5532bc94"
                },
                "valueQuantity": {
                    "code": "%",
                    "system": "http://unitsofmeasure.org",
                    "unit": "%",
                    "value": 71
                },
                "resourceType": "Observation"
            }
        },
        {
            "request": {
                "method": "PUT",
                "url": "Observation/55d266de-fe27-4218-81a7-3ac77d293a6b"
            },
            "resource": {
                "id": "55d266de-fe27-4218-81a7-3ac77d293a6b",
                "meta": {
                    "profile": [
                        "https://www.netzwerk-universitaetsmedizin.de/fhir/StructureDefinition/pH"
                    ]
                },
                "category": [
                    {
                        "coding": [
                            {
                                "code": "26436-6",
                                "system": "http://loinc.org"
                            },
                            {
                                "code": "laboratory",
                                "system": "http://terminology.hl7.org/CodeSystem/observation-category"
                            },
                            {
                                "code": "18767-4",
                                "system": "http://loinc.org"
                            }
                        ]
                    }
                ],
                "code": {
                    "coding": [
                        {
                            "code": "2744-1",
                            "display": "pH of Arterial blood",
                            "system": "http://loinc.org"
                        }
                    ],
                    "text": "pH"
                },
                "effectiveDateTime": "2020-11-17T10:50:59+01:00",
                "identifier": [
                    {
                        "assigner": {
                            "reference": "Organization/Charit\u00e9"
                        },
                        "system": "https://www.charite.de/fhir/CodeSystem/lab-identifiers",
                        "type": {
                            "coding": [
                                {
                                    "code": "OBI",
                                    "system": "http://terminology.hl7.org/CodeSystem/v2-0203"
                                }
                            ]
                        },
                        "value": "2744-1_pH"
                    }
                ],
                "status": "final",
                "subject": {
                    "reference": "Patient/4aff75a2-c6a0-40a5-abd2-6afe5532bc94"
                },
                "valueQuantity": {
                    "code": "[pH]",
                    "system": "http://unitsofmeasure.org",
                    "unit": "pH",
                    "value": 7.39
                },
                "resourceType": "Observation"
            }
        },
        {
            "request": {
                "method": "PUT",
                "url": "Observation/e59454bc-73ff-43d9-a500-ad1b927e83a2"
            },
            "resource": {
                "id": "e59454bc-73ff-43d9-a500-ad1b927e83a2",
                "meta": {
                    "profile": [
                        "https://www.netzwerk-universitaetsmedizin.de/fhir/StructureDefinition/oxygen-saturation"
                    ]
                },
                "category": [
                    {
                        "coding": [
                            {
                                "code": "vital-signs",
                                "system": "http://terminology.hl7.org/CodeSystem/observation-category"
                            }
                        ]
                    }
                ],
                "code": {
                    "coding": [
                        {
                            "code": "2708-6",
                            "display": "Oxygen saturation in Arterial blood",
                            "system": "http://loinc.org"
                        }
                    ],
                    "text": "Oxygen saturation"
                },
                "effectiveDateTime": "2020-11-17T10:50:59+01:00",
                "identifier": [
                    {
                        "assigner": {
                            "reference": "Organization/Charit\u00e9"
                        },
                        "system": "https://www.charite.de/fhir/CodeSystem/lab-identifiers",
                        "type": {
                            "coding": [
                                {
                                    "code": "OBI",
                                    "system": "http://terminology.hl7.org/CodeSystem/v2-0203"
                                }
                            ]
                        },
                        "value": "2708-6_OxygenSaturation"
                    }
                ],
                "status": "final",
                "subject": {
                    "reference": "Patient/4aff75a2-c6a0-40a5-abd2-6afe5532bc94"
                },
                "valueQuantity": {
                    "code": "%",
                    "system": "http://unitsofmeasure.org",
                    "unit": "%",
                    "value": 94
                },
                "resourceType": "Observation"
            }
        },
        {
            "request": {
                "method": "PUT",
                "url": "Observation/3e2449b7-42a4-413f-ada6-900f22fe3ea2"
            },
            "resource": {
                "id": "3e2449b7-42a4-413f-ada6-900f22fe3ea2",
                "meta": {
                    "profile": [
                        "https://www.netzwerk-universitaetsmedizin.de/fhir/StructureDefinition/blood-gas-panel"
                    ]
                },
                "category": [
                    {
                        "coding": [
                            {
                                "code": "26436-6",
                                "system": "http://loinc.org"
                            },
                            {
                                "code": "laboratory",
                                "system": "http://terminology.hl7.org/CodeSystem/observation-category"
                            },
                            {
                                "code": "18767-4",
                                "system": "http://loinc.org"
                            }
                        ]
                    }
                ],
                "code": {
                    "coding": [
                        {
                            "code": "24336-0",
                            "display": "Gas panel (BldA)",
                            "system": "http://loinc.org"
                        }
                    ],
                    "text": "Gas panel - Arterial blood"
                },
                "effectiveDateTime": "2020-11-17T10:50:59+01:00",
                "hasMember": [
                    {
                        "reference": "Observation/31699afd-02f0-482c-850a-557571093691"
                    },
                    {
                        "reference": "Observation/8ccd7881-d397-4673-8c6d-4bce063d49f6"
                    },
                    {
                        "reference": "Observation/3a284d18-e1a2-4922-8c3c-fe85b6c876c8"
                    },
                    {
                        "reference": "Observation/55d266de-fe27-4218-81a7-3ac77d293a6b"
                    },
                    {
                        "reference": "Observation/e59454bc-73ff-43d9-a500-ad1b927e83a2"
                    }
                ],
                "identifier": [
                    {
                        "assigner": {
                            "reference": "Organization/Charit\u00e9"
                        },
                        "system": "https://www.charite.de/fhir/CodeSystem/lab-identifiers",
                        "type": {
                            "coding": [
                                {
                                    "code": "OBI",
                                    "system": "http://terminology.hl7.org/CodeSystem/v2-0203"
                                }
                            ]
                        },
                        "value": "24336-0_gasPanelBldA"
                    }
                ],
                "status": "final",
                "subject": {
                    "reference": "Patient/4aff75a2-c6a0-40a5-abd2-6afe5532bc94"
                },
                "resourceType": "Observation"
            }
        },
        {
            "request": {
                "method": "PUT",
                "url": "Observation/fd629155-47c0-4f13-a83a-d9659424a072"
            },
            "resource": {
                "id": "fd629155-47c0-4f13-a83a-d9659424a072",
                "meta": {
                    "profile": [
                        "https://www.netzwerk-universitaetsmedizin.de/fhir/StructureDefinition/sofa-score"
                    ]
                },
                "category": [
                    {
                        "coding": [
                            {
                                "code": "survey",
                                "system": "http://terminology.hl7.org/CodeSystem/observation-category"
                            }
                        ]
                    }
                ],
                "code": {
                    "coding": [
                        {
                            "code": "06",
                            "display": "SOFA-Score",
                            "system": "https://www.netzwerk-universitaetsmedizin.de/fhir/CodeSystem/ecrf-parameter-codes"
                        }
                    ],
                    "text": "Sepsis-related organ failure assessment score"
                },
                "component": [
                    {
                        "code": {
                            "coding": [
                                {
                                    "code": "resp",
                                    "display": "Respiratory system",
                                    "system": "https://www.netzwerk-universitaetsmedizin.de/fhir/CodeSystem/sofa-score"
                                }
                            ],
                            "text": "SOFA Respiratory system scoring category"
                        },
                        "valueCodeableConcept": {
                            "coding": [
                                {
                                    "code": "resp1",
                                    "display": "Respiratory system SOFA score 1",
                                    "system": "https://www.netzwerk-universitaetsmedizin.de/fhir/CodeSystem/sofa-score"
                                }
                            ],
                            "text": "PaO2/FiO2 [mmHg (kPa)] < 400 (53.3)"
                        }
                    },
                    {
                        "code": {
                            "coding": [
                                {
                                    "code": "ns",
                                    "display": "Nervous system",
                                    "system": "https://www.netzwerk-universitaetsmedizin.de/fhir/CodeSystem/sofa-score"
                                }
                            ],
                            "text": "SOFA Nervous system scoring category"
                        },
                        "valueCodeableConcept": {
                            "coding": [
                                {
                                    "code": "ns2",
                                    "display": "Nervous system SOFA score 2",
                                    "system": "https://www.netzwerk-universitaetsmedizin.de/fhir/CodeSystem/sofa-score"
                                }
                            ],
                            "text": "Glasgow Coma Scale (GCS) 10-12"
                        }
                    },
                    {
                        "code": {
                            "coding": [
                                {
                                    "code": "cvs",
                                    "display": "Cardiovascular system",
                                    "system": "https://www.netzwerk-universitaetsmedizin.de/fhir/CodeSystem/sofa-score"
                                }
                            ],
                            "text": "SOFA Cardiovascular system scoring category"
                        },
                        "valueCodeableConcept": {
                            "coding": [
                                {
                                    "code": "cvs2",
                                    "display": "Cardiovascular system SOFA score 2",
                                    "system": "https://www.netzwerk-universitaetsmedizin.de/fhir/CodeSystem/sofa-score"
                                }
                            ],
                            "text": "Administration of dopamine \u2264 5 ug/kg/min or dobutamine (any dose)"
                        }
                    },
                    {
                        "code": {
                            "coding": [
                                {
                                    "code": "liv",
                                    "display": "Liver",
                                    "system": "https://www.netzwerk-universitaetsmedizin.de/fhir/CodeSystem/sofa-score"
                                }
                            ],
                            "text": "SOFA Liver scoring category"
                        },
                        "valueCodeableConcept": {
                            "coding": [
                                {
                                    "code": "liv0",
                                    "display": "Liver SOFA score 0",
                                    "system": "https://www.netzwerk-universitaetsmedizin.de/fhir/CodeSystem/sofa-score"
                                }
                            ],
                            "text": "Bilirubin (mg/dl) [umol/L] < 1.2 [< 20]"
                        }
                    },
                    {
                        "code": {
                            "coding": [
                                {
                                    "code": "coa",
                                    "display": "Coagulation",
                                    "system": "https://www.netzwerk-universitaetsmedizin.de/fhir/CodeSystem/sofa-score"
                                }
                            ],
                            "text": "SOFA Coagulation scoring category"
                        },
                        "valueCodeableConcept": {
                            "coding": [
                                {
                                    "code": "coa4",
                                    "display": "Coagulation SOFA score 4",
                                    "system": "https://www.netzwerk-universitaetsmedizin.de/fhir/CodeSystem/sofa-score"
                                }
                            ],
                            "text": "Platelets\u00d710^3/ul < 20"
                        }
                    },
                    {
                        "code": {
                            "coding": [
                                {
                                    "code": "kid",
                                    "display": "Kidneys",
                                    "system": "https://www.netzwerk-universitaetsmedizin.de/fhir/CodeSystem/sofa-score"
                                }
                            ],
                            "text": "SOFA Kidneys scoring category"
                        },
                        "valueCodeableConcept": {
                            "coding": [
                                {
                                    "code": "kid3",
                                    "display": "Kidneys SOFA score 3",
                                    "system": "https://www.netzwerk-universitaetsmedizin.de/fhir/CodeSystem/sofa-score"
                                }
                            ],
                            "text": "Creatinine (mg/dl) [umol/L] (or urine output) 3.5-4.9 [300-440] (or < 500 ml/d)"
                        }
                    }
                ],
                "effectiveDateTime": "2020-11-17T10:50:59+01:00",
                "identifier": [
                    {
                        "assigner": {
                            "reference": "Organization/Charit\u00e9"
                        },
                        "system": "https://www.charite.de/fhir/CodeSystem/observation-identifiers",
                        "type": {
                            "coding": [
                                {
                                    "code": "OBI",
                                    "system": "http://terminology.hl7.org/CodeSystem/v2-0203"
                                }
                            ]
                        },
                        "value": "06_SOFA-Score"
                    }
                ],
                "status": "final",
                "subject": {
                    "reference": "Patient/4aff75a2-c6a0-40a5-abd2-6afe5532bc94"
                },
                "resourceType": "Observation"
            }
        },
        {
            "request": {
                "method": "PUT",
                "url": "Observation/47a1636e-bab8-49fc-af61-2221a302ee06"
            },
            "resource": {
                "id": "47a1636e-bab8-49fc-af61-2221a302ee06",
                "meta": {
                    "profile": [
                        "https://www.netzwerk-universitaetsmedizin.de/fhir/StructureDefinition/heart-rate"
                    ]
                },
                "category": [
                    {
                        "coding": [
                            {
                                "code": "vital-signs",
                                "system": "http://terminology.hl7.org/CodeSystem/observation-category"
                            }
                        ]
                    }
                ],
                "code": {
                    "coding": [
                        {
                            "code": "8867-4",
                            "display": "Heart rate",
                            "system": "http://loinc.org"
                        },
                        {
                            "code": "364075005",
                            "display": "Heart rate (observable entity)",
                            "system": "http://snomed.info/sct"
                        }
                    ],
                    "text": "Heart rate"
                },
                "effectiveDateTime": "2020-11-17T10:50:59+01:00",
                "identifier": [
                    {
                        "assigner": {
                            "reference": "Organization/Charit\u00e9"
                        },
                        "system": "https://www.charite.de/fhir/CodeSystem/observation-identifiers",
                        "type": {
                            "coding": [
                                {
                                    "code": "OBI",
                                    "system": "http://terminology.hl7.org/CodeSystem/v2-0203"
                                }
                            ]
                        },
                        "value": "8867-4_HeartRate"
                    }
                ],
                "status": "final",
                "subject": {
                    "reference": "Patient/4aff75a2-c6a0-40a5-abd2-6afe5532bc94"
                },
                "valueQuantity": {
                    "code": "/min",
                    "system": "http://unitsofmeasure.org",
                    "unit": "per minute",
                    "value": 63
                },
                "resourceType": "Observation"
            }
        },
        {
            "request": {
                "method": "PUT",
                "url": "Observation/15ca5c22-a112-4a5c-892c-92a53ec0259a"
            },
            "resource": {
                "id": "15ca5c22-a112-4a5c-892c-92a53ec0259a",
                "meta": {
                    "profile": [
                        "https://www.netzwerk-universitaetsmedizin.de/fhir/StructureDefinition/respiratory-rate"
                    ]
                },
                "category": [
                    {
                        "coding": [
                            {
                                "code": "vital-signs",
                                "system": "http://terminology.hl7.org/CodeSystem/observation-category"
                            }
                        ]
                    }
                ],
                "code": {
                    "coding": [
                        {
                            "code": "9279-1",
                            "display": "Respiratory rate",
                            "system": "http://loinc.org"
                        },
                        {
                            "code": "86290005",
                            "display": "Respiratory rate (observable entity)",
                            "system": "http://snomed.info/sct"
                        }
                    ],
                    "text": "Respiratory rate"
                },
                "effectiveDateTime": "2020-11-17T10:50:59+01:00",
                "identifier": [
                    {
                        "assigner": {
                            "reference": "Organization/Charit\u00e9"
                        },
                        "system": "https://www.charite.de/fhir/CodeSystem/observation-identifiers",
                        "type": {
                            "coding": [
                                {
                                    "code": "OBI",
                                    "system": "http://terminology.hl7.org/CodeSystem/v2-0203"
                                }
                            ]
                        },
                        "value": "9279-1_RespiratoryRate"
                    }
                ],
                "status": "final",
                "subject": {
                    "reference": "Patient/4aff75a2-c6a0-40a5-abd2-6afe5532bc94"
                },
                "valueQuantity": {
                    "code": "/min",
                    "system": "http://unitsofmeasure.org",
                    "unit": "per minute",
                    "value": 27
                },
                "resourceType": "Observation"
            }
        },
        {
            "request": {
                "method": "PUT",
                "url": "Observation/2a4386d9-4a9a-42c3-a588-e0636dcf8a5d"
            },
            "resource": {
                "id": "2a4386d9-4a9a-42c3-a588-e0636dcf8a5d",
                "meta": {
                    "profile": [
                        "https://www.netzwerk-universitaetsmedizin.de/fhir/StructureDefinition/body-temperature"
                    ]
                },
                "category": [
                    {
                        "coding": [
                            {
                                "code": "vital-signs",
                                "system": "http://terminology.hl7.org/CodeSystem/observation-category"
                            }
                        ]
                    }
                ],
                "code": {
                    "coding": [
                        {
                            "code": "8310-5",
                            "display": "Body temperature",
                            "system": "http://loinc.org"
                        },
                        {
                            "code": "386725007",
                            "display": "Body temperature (observable entity)",
                            "system": "http://snomed.info/sct"
                        }
                    ],
                    "text": "Body temperature"
                },
                "effectiveDateTime": "2020-11-17T10:50:59+01:00",
                "identifier": [
                    {
                        "assigner": {
                            "reference": "Organization/Charit\u00e9"
                        },
                        "system": "https://www.charite.de/fhir/CodeSystem/observation-identifiers",
                        "type": {
                            "coding": [
                                {
                                    "code": "OBI",
                                    "system": "http://terminology.hl7.org/CodeSystem/v2-0203"
                                }
                            ]
                        },
                        "value": "8310-5_BodyTemperature"
                    }
                ],
                "status": "final",
                "subject": {
                    "reference": "Patient/4aff75a2-c6a0-40a5-abd2-6afe5532bc94"
                },
                "valueQuantity": {
                    "code": "Cel",
                    "system": "http://unitsofmeasure.org",
                    "unit": "\u00b0C",
                    "value": 36.43
                },
                "resourceType": "Observation"
            }
        }
    ],
    "timestamp": "2020-11-17T10:50:59+01:00",
    "type": "transaction",
    "resourceType": "Bundle"
}