{
    "meta": {
        "profile": [
            "https://www.netzwerk-universitaetsmedizin.de/fhir/StructureDefinition/gecco-bundle"
        ]
    },
    "entry": [
        {
            "request": {
                "method": "PUT",
                "url": "Patient/80345e54-a523-478f-98b2-1412e5abb316"
            },
            "resource": {
                "id": "80345e54-a523-478f-98b2-1412e5abb316",
                "meta": {
                    "profile": [
                        "https://www.netzwerk-universitaetsmedizin.de/fhir/StructureDefinition/Patient"
                    ]
                },
                "extension": [
                    {
                        "url": "https://www.netzwerk-universitaetsmedizin.de/fhir/StructureDefinition/ethnic-group",
                        "valueCoding": {
                            "code": "2135-2",
                            "display": "Hispanic or Latino",
                            "system": "urn:oid:2.16.840.1.113883.6.238"
                        }
                    },
                    {
                        "extension": [
                            {
                                "url": "dateTimeOfDocumentation",
                                "valueDateTime": "2020-11-17T10:51:05+01:00"
                            },
                            {
                                "url": "age",
                                "valueAge": {
                                    "code": "a",
                                    "system": "http://unitsofmeasure.org",
                                    "unit": "years",
                                    "value": 86
                                }
                            }
                        ],
                        "url": "https://www.netzwerk-universitaetsmedizin.de/fhir/StructureDefinition/age"
                    }
                ],
                "birthDate": "1934-07-25",
                "identifier": [
                    {
                        "assigner": {
                            "reference": "Organization/Charit\u00e9"
                        },
                        "system": "https://www.charite.de/fhir/CodeSystem/medical-record-numbers",
                        "type": {
                            "coding": [
                                {
                                    "code": "MR",
                                    "system": "http://terminology.hl7.org/CodeSystem/v2-0203"
                                }
                            ]
                        },
                        "value": "71929996"
                    }
                ],
                "resourceType": "Patient"
            }
        },
        {
            "request": {
                "method": "PUT",
                "url": "Observation/3f244abb-5364-45bf-a400-34d21b8ae093"
            },
            "resource": {
                "id": "3f244abb-5364-45bf-a400-34d21b8ae093",
                "meta": {
                    "profile": [
                        "https://www.netzwerk-universitaetsmedizin.de/fhir/StructureDefinition/sex-assigned-at-birth"
                    ]
                },
                "category": [
                    {
                        "coding": [
                            {
                                "code": "social-history",
                                "display": "Social History",
                                "system": "http://terminology.hl7.org/CodeSystem/observation-category"
                            }
                        ]
                    }
                ],
                "code": {
                    "coding": [
                        {
                            "code": "76689-9",
                            "display": "Sex assigned at birth",
                            "system": "http://loinc.org"
                        }
                    ]
                },
                "effectiveDateTime": "2020-11-17T10:51:05+01:00",
                "status": "final",
                "subject": {
                    "reference": "Patient/80345e54-a523-478f-98b2-1412e5abb316"
                },
                "valueCodeableConcept": {
                    "coding": [
                        {
                            "code": "male",
                            "display": "Male",
                            "system": "http://hl7.org/fhir/administrative-gender"
                        }
                    ],
                    "text": "Male"
                },
                "resourceType": "Observation"
            }
        },
        {
            "request": {
                "method": "PUT",
                "url": "Observation/262d1af5-a82b-4b4b-ad33-4db9d2a0c995"
            },
            "resource": {
                "id": "262d1af5-a82b-4b4b-ad33-4db9d2a0c995",
                "meta": {
                    "profile": [
                        "https://www.netzwerk-universitaetsmedizin.de/fhir/StructureDefinition/pregnancy-status"
                    ]
                },
                "category": [
                    {
                        "coding": [
                            {
                                "code": "social-history",
                                "system": "http://terminology.hl7.org/CodeSystem/observation-category"
                            }
                        ]
                    }
                ],
                "code": {
                    "coding": [
                        {
                            "code": "82810-3",
                            "display": "Pregnancy status",
                            "system": "http://loinc.org"
                        }
                    ],
                    "text": "Pregnancy status"
                },
                "effectiveDateTime": "2020-11-17T10:51:05+01:00",
                "identifier": [
                    {
                        "assigner": {
                            "reference": "Organization/Charit\u00e9"
                        },
                        "system": "https://www.charite.de/fhir/CodeSystem/observation-identifiers",
                        "type": {
                            "coding": [
                                {
                                    "code": "OBI",
                                    "system": "http://terminology.hl7.org/CodeSystem/v2-0203"
                                }
                            ]
                        },
                        "value": "82810-3_PregnancyStatus"
                    }
                ],
                "status": "final",
                "subject": {
                    "reference": "Patient/80345e54-a523-478f-98b2-1412e5abb316"
                },
                "valueCodeableConcept": {
                    "coding": [
                        {
                            "code": "LA4489-6",
                            "display": "Unknown",
                            "system": "http://loinc.org"
                        },
                        {
                            "code": "261665006",
                            "display": "Unknown (qualifier value)",
                            "system": "http://snomed.info/sct"
                        }
                    ]
                },
                "resourceType": "Observation"
            }
        },
        {
            "request": {
                "method": "PUT",
                "url": "Observation/0084262c-e83d-4bb9-b5ea-40558cd1cc14"
            },
            "resource": {
                "id": "0084262c-e83d-4bb9-b5ea-40558cd1cc14",
                "meta": {
                    "profile": [
                        "https://www.netzwerk-universitaetsmedizin.de/fhir/StructureDefinition/frailty-score"
                    ]
                },
                "category": [
                    {
                        "coding": [
                            {
                                "code": "survey",
                                "system": "http://terminology.hl7.org/CodeSystem/observation-category"
                            }
                        ]
                    }
                ],
                "code": {
                    "coding": [
                        {
                            "code": "763264000",
                            "display": "Canadian Study of Health and Aging Clinical Frailty Scale score",
                            "system": "http://snomed.info/sct"
                        }
                    ],
                    "text": "Frailty Scale Score"
                },
                "effectiveDateTime": "2020-11-17T10:51:05+01:00",
                "identifier": [
                    {
                        "assigner": {
                            "reference": "Organization/Charit\u00e9"
                        },
                        "system": "https://www.charite.de/fhir/CodeSystem/observation-identifiers",
                        "type": {
                            "coding": [
                                {
                                    "code": "OBI",
                                    "system": "http://terminology.hl7.org/CodeSystem/v2-0203"
                                }
                            ]
                        },
                        "value": "763264000_FrailtyScaleScore"
                    }
                ],
                "method": {
                    "coding": [
                        {
                            "code": "445414007",
                            "display": "Canadian Study of Health and Aging clinical frailty scale",
                            "system": "http://snomed.info/sct"
                        }
                    ]
                },
                "status": "final",
                "subject": {
                    "reference": "Patient/80345e54-a523-478f-98b2-1412e5abb316"
                },
                "valueCodeableConcept": {
                    "coding": [
                        {
                            "code": "5",
                            "display": "Mildly Frail",
                            "system": "https://www.netzwerk-universitaetsmedizin.de/fhir/CodeSystem/frailty-score"
                        }
                    ]
                },
                "resourceType": "Observation"
            }
        },
        {
            "request": {
                "method": "PUT",
                "url": "Observation/8e72850e-404b-4f8f-83e7-3e326cf05500"
            },
            "resource": {
                "id": "8e72850e-404b-4f8f-83e7-3e326cf05500",
                "meta": {
                    "profile": [
                        "https://www.netzwerk-universitaetsmedizin.de/fhir/StructureDefinition/body-weight"
                    ]
                },
                "category": [
                    {
                        "coding": [
                            {
                                "code": "vital-signs",
                                "system": "http://terminology.hl7.org/CodeSystem/observation-category"
                            }
                        ]
                    }
                ],
                "code": {
                    "coding": [
                        {
                            "code": "29463-7",
                            "display": "Body weight",
                            "system": "http://loinc.org"
                        },
                        {
                            "code": "27113001",
                            "display": "Body weight (observable entity)",
                            "system": "http://snomed.info/sct"
                        }
                    ],
                    "text": "Body weight"
                },
                "effectiveDateTime": "2020-11-17T10:51:05+01:00",
                "identifier": [
                    {
                        "assigner": {
                            "reference": "Organization/Charit\u00e9"
                        },
                        "system": "https://www.charite.de/fhir/CodeSystem/observation-identifiers",
                        "type": {
                            "coding": [
                                {
                                    "code": "OBI",
                                    "system": "http://terminology.hl7.org/CodeSystem/v2-0203"
                                }
                            ]
                        },
                        "value": "29463-7_BodyWeight"
                    }
                ],
                "status": "final",
                "subject": {
                    "reference": "Patient/80345e54-a523-478f-98b2-1412e5abb316"
                },
                "valueQuantity": {
                    "code": "kg",
                    "system": "http://unitsofmeasure.org",
                    "unit": "kilogram",
                    "value": 52
                },
                "resourceType": "Observation"
            }
        },
        {
            "request": {
                "method": "PUT",
                "url": "Observation/44170341-b7a6-49fc-8c74-fa6ea7914572"
            },
            "resource": {
                "id": "44170341-b7a6-49fc-8c74-fa6ea7914572",
                "meta": {
                    "profile": [
                        "https://www.netzwerk-universitaetsmedizin.de/fhir/StructureDefinition/body-height"
                    ]
                },
                "category": [
                    {
                        "coding": [
                            {
                                "code": "vital-signs",
                                "system": "http://terminology.hl7.org/CodeSystem/observation-category"
                            }
                        ]
                    }
                ],
                "code": {
                    "coding": [
                        {
                            "code": "8302-2",
                            "display": "Body height",
                            "system": "http://loinc.org"
                        },
                        {
                            "code": "50373000",
                            "display": "Body height measure (observable entity)",
                            "system": "http://snomed.info/sct"
                        }
                    ],
                    "text": "Body height"
                },
                "effectiveDateTime": "2020-11-17T10:51:05+01:00",
                "identifier": [
                    {
                        "assigner": {
                            "reference": "Organization/Charit\u00e9"
                        },
                        "system": "https://www.charite.de/fhir/CodeSystem/observation-identifiers",
                        "type": {
                            "coding": [
                                {
                                    "code": "OBI",
                                    "system": "http://terminology.hl7.org/CodeSystem/v2-0203"
                                }
                            ]
                        },
                        "value": "8302-2_BodyHeight"
                    }
                ],
                "status": "final",
                "subject": {
                    "reference": "Patient/80345e54-a523-478f-98b2-1412e5abb316"
                },
                "valueQuantity": {
                    "code": "cm",
                    "system": "http://unitsofmeasure.org",
                    "unit": "centimeter",
                    "value": 199
                },
                "resourceType": "Observation"
            }
        },
        {
            "request": {
                "method": "POST",
                "url": "Condition"
            },
            "resource": {
                "id": "3ae2e238-2335-4b38-bc84-39541377abc7",
                "meta": {
                    "profile": [
                        "https://www.netzwerk-universitaetsmedizin.de/fhir/StructureDefinition/chronic-lung-diseases"
                    ]
                },
                "category": [
                    {
                        "coding": [
                            {
                                "code": "418112009",
                                "display": "Pulmonary medicine",
                                "system": "http://snomed.info/sct"
                            }
                        ]
                    }
                ],
                "code": {
                    "coding": [
                        {
                            "code": "413839001",
                            "display": "Chronic lung disease",
                            "system": "http://snomed.info/sct"
                        }
                    ]
                },
                "recordedDate": "2020-11-17T10:51:05+01:00",
                "subject": {
                    "reference": "Patient/80345e54-a523-478f-98b2-1412e5abb316"
                },
                "verificationStatus": {
                    "coding": [
                        {
                            "code": "refuted",
                            "display": "Refuted",
                            "system": "http://terminology.hl7.org/CodeSystem/condition-ver-status"
                        },
                        {
                            "code": "410594000",
                            "display": "Definitely NOT present (qualifier value)",
                            "system": "http://snomed.info/sct"
                        }
                    ]
                },
                "resourceType": "Condition"
            }
        },
        {
            "request": {
                "method": "POST",
                "url": "Condition"
            },
            "resource": {
                "id": "77656e13-8c9e-41e3-9d37-d639a2e0f710",
                "meta": {
                    "profile": [
                        "https://www.netzwerk-universitaetsmedizin.de/fhir/StructureDefinition/cardiovascular-diseases"
                    ]
                },
                "category": [
                    {
                        "coding": [
                            {
                                "code": "722414000",
                                "display": "Vascular medicine",
                                "system": "http://snomed.info/sct"
                            }
                        ]
                    }
                ],
                "clinicalStatus": {
                    "coding": [
                        {
                            "code": "active",
                            "display": "Active",
                            "system": "http://terminology.hl7.org/CodeSystem/condition-clinical"
                        }
                    ]
                },
                "code": {
                    "coding": [
                        {
                            "code": "49601007",
                            "display": "Cardiovascular disease",
                            "system": "http://snomed.info/sct"
                        }
                    ]
                },
                "recordedDate": "2020-11-17T10:51:05+01:00",
                "subject": {
                    "reference": "Patient/80345e54-a523-478f-98b2-1412e5abb316"
                },
                "verificationStatus": {
                    "coding": [
                        {
                            "code": "confirmed",
                            "display": "Confirmed",
                            "system": "http://terminology.hl7.org/CodeSystem/condition-ver-status"
                        },
                        {
                            "code": "410605003",
                            "display": "Confirmed present (qualifier value)",
                            "system": "http://snomed.info/sct"
                        }
                    ]
                },
                "resourceType": "Condition"
            }
        },
        {
            "request": {
                "method": "POST",
                "url": "Condition"
            },
            "resource": {
                "id": "72028ecc-3ddf-4f7b-99eb-7cd538dbd51b",
                "meta": {
                    "profile": [
                        "https://www.netzwerk-universitaetsmedizin.de/fhir/StructureDefinition/cardiovascular-diseases"
                    ]
                },
                "category": [
                    {
                        "coding": [
                            {
                                "code": "722414000",
                                "display": "Vascular medicine",
                                "system": "http://snomed.info/sct"
                            }
                        ]
                    }
                ],
                "clinicalStatus": {
                    "coding": [
                        {
                            "code": "active",
                            "display": "Active",
                            "system": "http://terminology.hl7.org/CodeSystem/condition-clinical"
                        }
                    ]
                },
                "code": {
                    "coding": [
                        {
                            "code": "38341003",
                            "display": "Hypertensive disorder",
                            "system": "http://snomed.info/sct"
                        }
                    ]
                },
                "recordedDate": "2020-11-17T10:51:05+01:00",
                "subject": {
                    "reference": "Patient/80345e54-a523-478f-98b2-1412e5abb316"
                },
                "verificationStatus": {
                    "coding": [
                        {
                            "code": "confirmed",
                            "display": "Confirmed",
                            "system": "http://terminology.hl7.org/CodeSystem/condition-ver-status"
                        },
                        {
                            "code": "410605003",
                            "display": "Confirmed present (qualifier value)",
                            "system": "http://snomed.info/sct"
                        }
                    ]
                },
                "resourceType": "Condition"
            }
        },
        {
            "request": {
                "method": "POST",
                "url": "Condition"
            },
            "resource": {
                "id": "e97a8118-1d5b-41f4-a103-b7ca553ab11d",
                "meta": {
                    "profile": [
                        "https://www.netzwerk-universitaetsmedizin.de/fhir/StructureDefinition/cardiovascular-diseases"
                    ]
                },
                "extension": [
                    {
                        "url": "https://www.netzwerk-universitaetsmedizin.de/fhir/StructureDefinition/uncertainty-of-presence",
                        "valueCodeableConcept": {
                            "coding": [
                                {
                                    "code": "261665006",
                                    "display": "Unknown (qualifier value)",
                                    "system": "http://snomed.info/sct"
                                }
                            ],
                            "text": "Presence of condition is unknown."
                        }
                    }
                ],
                "category": [
                    {
                        "coding": [
                            {
                                "code": "722414000",
                                "display": "Vascular medicine",
                                "system": "http://snomed.info/sct"
                            }
                        ]
                    }
                ],
                "code": {
                    "coding": [
                        {
                            "code": "417662000:246090004=22298006",
                            "display": "History of myocardial infarction",
                            "system": "http://snomed.info/sct"
                        }
                    ]
                },
                "recordedDate": "2020-11-17T10:51:05+01:00",
                "subject": {
                    "reference": "Patient/80345e54-a523-478f-98b2-1412e5abb316"
                },
                "resourceType": "Condition"
            }
        },
        {
            "request": {
                "method": "POST",
                "url": "Condition"
            },
            "resource": {
                "id": "29ec7233-8c34-4f91-a3e1-c683222e5dbc",
                "meta": {
                    "profile": [
                        "https://www.netzwerk-universitaetsmedizin.de/fhir/StructureDefinition/cardiovascular-diseases"
                    ]
                },
                "extension": [
                    {
                        "url": "https://www.netzwerk-universitaetsmedizin.de/fhir/StructureDefinition/uncertainty-of-presence",
                        "valueCodeableConcept": {
                            "coding": [
                                {
                                    "code": "261665006",
                                    "display": "Unknown (qualifier value)",
                                    "system": "http://snomed.info/sct"
                                }
                            ],
                            "text": "Presence of condition is unknown."
                        }
                    }
                ],
                "category": [
                    {
                        "coding": [
                            {
                                "code": "722414000",
                                "display": "Vascular medicine",
                                "system": "http://snomed.info/sct"
                            }
                        ]
                    }
                ],
                "code": {
                    "coding": [
                        {
                            "code": "698247007",
                            "display": "Cardiac arrhythmia",
                            "system": "http://snomed.info/sct"
                        }
                    ]
                },
                "recordedDate": "2020-11-17T10:51:05+01:00",
                "subject": {
                    "reference": "Patient/80345e54-a523-478f-98b2-1412e5abb316"
                },
                "resourceType": "Condition"
            }
        },
        {
            "request": {
                "method": "POST",
                "url": "Condition"
            },
            "resource": {
                "id": "f6c1d3e1-a870-430e-887a-d2d814ad9199",
                "meta": {
                    "profile": [
                        "https://www.netzwerk-universitaetsmedizin.de/fhir/StructureDefinition/cardiovascular-diseases"
                    ]
                },
                "category": [
                    {
                        "coding": [
                            {
                                "code": "722414000",
                                "display": "Vascular medicine",
                                "system": "http://snomed.info/sct"
                            }
                        ]
                    }
                ],
                "code": {
                    "coding": [
                        {
                            "code": "84114007",
                            "display": "Heart failure",
                            "system": "http://snomed.info/sct"
                        }
                    ]
                },
                "recordedDate": "2020-11-17T10:51:05+01:00",
                "subject": {
                    "reference": "Patient/80345e54-a523-478f-98b2-1412e5abb316"
                },
                "verificationStatus": {
                    "coding": [
                        {
                            "code": "refuted",
                            "display": "Refuted",
                            "system": "http://terminology.hl7.org/CodeSystem/condition-ver-status"
                        },
                        {
                            "code": "410594000",
                            "display": "Definitely NOT present (qualifier value)",
                            "system": "http://snomed.info/sct"
                        }
                    ]
                },
                "resourceType": "Condition"
            }
        },
        {
            "request": {
                "method": "POST",
                "url": "Condition"
            },
            "resource": {
                "id": "275ada11-e468-45c8-a137-1aa7a9560df0",
                "meta": {
                    "profile": [
                        "https://www.netzwerk-universitaetsmedizin.de/fhir/StructureDefinition/cardiovascular-diseases"
                    ]
                },
                "extension": [
                    {
                        "url": "https://www.netzwerk-universitaetsmedizin.de/fhir/StructureDefinition/uncertainty-of-presence",
                        "valueCodeableConcept": {
                            "coding": [
                                {
                                    "code": "261665006",
                                    "display": "Unknown (qualifier value)",
                                    "system": "http://snomed.info/sct"
                                }
                            ],
                            "text": "Presence of condition is unknown."
                        }
                    }
                ],
                "category": [
                    {
                        "coding": [
                            {
                                "code": "722414000",
                                "display": "Vascular medicine",
                                "system": "http://snomed.info/sct"
                            }
                        ]
                    }
                ],
                "code": {
                    "coding": [
                        {
                            "code": "399957001",
                            "display": "Peripheral arterial occlusive disease",
                            "system": "http://snomed.info/sct"
                        }
                    ]
                },
                "recordedDate": "2020-11-17T10:51:05+01:00",
                "subject": {
                    "reference": "Patient/80345e54-a523-478f-98b2-1412e5abb316"
                },
                "resourceType": "Condition"
            }
        },
        {
            "request": {
                "method": "POST",
                "url": "Condition"
            },
            "resource": {
                "id": "f2e96ba6-2b3e-4f43-a21c-09afdeeb2d86",
                "meta": {
                    "profile": [
                        "https://www.netzwerk-universitaetsmedizin.de/fhir/StructureDefinition/cardiovascular-diseases"
                    ]
                },
                "extension": [
                    {
                        "url": "https://www.netzwerk-universitaetsmedizin.de/fhir/StructureDefinition/uncertainty-of-presence",
                        "valueCodeableConcept": {
                            "coding": [
                                {
                                    "code": "261665006",
                                    "display": "Unknown (qualifier value)",
                                    "system": "http://snomed.info/sct"
                                }
                            ],
                            "text": "Presence of condition is unknown."
                        }
                    }
                ],
                "category": [
                    {
                        "coding": [
                            {
                                "code": "722414000",
                                "display": "Vascular medicine",
                                "system": "http://snomed.info/sct"
                            }
                        ]
                    }
                ],
                "code": {
                    "coding": [
                        {
                            "code": "416940007:363589002=81266008",
                            "display": "History of heart revascularization",
                            "system": "http://snomed.info/sct"
                        }
                    ]
                },
                "recordedDate": "2020-11-17T10:51:05+01:00",
                "subject": {
                    "reference": "Patient/80345e54-a523-478f-98b2-1412e5abb316"
                },
                "resourceType": "Condition"
            }
        },
        {
            "request": {
                "method": "POST",
                "url": "Condition"
            },
            "resource": {
                "id": "775fba2f-8558-4876-ab1b-51742e61f431",
                "meta": {
                    "profile": [
                        "https://www.netzwerk-universitaetsmedizin.de/fhir/StructureDefinition/cardiovascular-diseases"
                    ]
                },
                "extension": [
                    {
                        "url": "https://www.netzwerk-universitaetsmedizin.de/fhir/StructureDefinition/uncertainty-of-presence",
                        "valueCodeableConcept": {
                            "coding": [
                                {
                                    "code": "261665006",
                                    "display": "Unknown (qualifier value)",
                                    "system": "http://snomed.info/sct"
                                }
                            ],
                            "text": "Presence of condition is unknown."
                        }
                    }
                ],
                "category": [
                    {
                        "coding": [
                            {
                                "code": "722414000",
                                "display": "Vascular medicine",
                                "system": "http://snomed.info/sct"
                            }
                        ]
                    }
                ],
                "code": {
                    "coding": [
                        {
                            "code": "53741008",
                            "display": "Coronary arteriosclerosis",
                            "system": "http://snomed.info/sct"
                        }
                    ]
                },
                "recordedDate": "2020-11-17T10:51:05+01:00",
                "subject": {
                    "reference": "Patient/80345e54-a523-478f-98b2-1412e5abb316"
                },
                "resourceType": "Condition"
            }
        },
        {
            "request": {
                "method": "POST",
                "url": "Condition"
            },
            "resource": {
                "id": "7231b4cb-7011-4b81-ae79-0acabf71e5cc",
                "meta": {
                    "profile": [
                        "https://www.netzwerk-universitaetsmedizin.de/fhir/StructureDefinition/cardiovascular-diseases"
                    ]
                },
                "category": [
                    {
                        "coding": [
                            {
                                "code": "722414000",
                                "display": "Vascular medicine",
                                "system": "http://snomed.info/sct"
                            }
                        ]
                    }
                ],
                "clinicalStatus": {
                    "coding": [
                        {
                            "code": "active",
                            "display": "Active",
                            "system": "http://terminology.hl7.org/CodeSystem/condition-clinical"
                        }
                    ]
                },
                "code": {
                    "coding": [
                        {
                            "code": "64586002",
                            "display": "Carotid artery stenosis",
                            "system": "http://snomed.info/sct"
                        }
                    ]
                },
                "recordedDate": "2020-11-17T10:51:05+01:00",
                "subject": {
                    "reference": "Patient/80345e54-a523-478f-98b2-1412e5abb316"
                },
                "verificationStatus": {
                    "coding": [
                        {
                            "code": "confirmed",
                            "display": "Confirmed",
                            "system": "http://terminology.hl7.org/CodeSystem/condition-ver-status"
                        },
                        {
                            "code": "410605003",
                            "display": "Confirmed present (qualifier value)",
                            "system": "http://snomed.info/sct"
                        }
                    ]
                },
                "resourceType": "Condition"
            }
        },
        {
            "request": {
                "method": "POST",
                "url": "Condition"
            },
            "resource": {
                "id": "5b65541a-68de-48dd-851c-a738486464c4",
                "meta": {
                    "profile": [
                        "https://www.netzwerk-universitaetsmedizin.de/fhir/StructureDefinition/chronic-liver-diseases"
                    ]
                },
                "category": [
                    {
                        "coding": [
                            {
                                "code": "408472002",
                                "display": "Hepatology",
                                "system": "http://snomed.info/sct"
                            }
                        ]
                    }
                ],
                "clinicalStatus": {
                    "coding": [
                        {
                            "code": "active",
                            "display": "Active",
                            "system": "http://terminology.hl7.org/CodeSystem/condition-clinical"
                        }
                    ]
                },
                "code": {
                    "coding": [
                        {
                            "code": "328383001",
                            "display": "Chronic liver disease",
                            "system": "http://snomed.info/sct"
                        }
                    ]
                },
                "recordedDate": "2020-11-17T10:51:05+01:00",
                "subject": {
                    "reference": "Patient/80345e54-a523-478f-98b2-1412e5abb316"
                },
                "verificationStatus": {
                    "coding": [
                        {
                            "code": "confirmed",
                            "display": "Confirmed",
                            "system": "http://terminology.hl7.org/CodeSystem/condition-ver-status"
                        },
                        {
                            "code": "410605003",
                            "display": "Confirmed present (qualifier value)",
                            "system": "http://snomed.info/sct"
                        }
                    ]
                },
                "resourceType": "Condition"
            }
        },
        {
            "request": {
                "method": "POST",
                "url": "Condition"
            },
            "resource": {
                "id": "cc9f18a8-3935-4ebd-b475-163cd6016037",
                "meta": {
                    "profile": [
                        "https://www.netzwerk-universitaetsmedizin.de/fhir/StructureDefinition/chronic-liver-diseases"
                    ]
                },
                "category": [
                    {
                        "coding": [
                            {
                                "code": "408472002",
                                "display": "Hepatology",
                                "system": "http://snomed.info/sct"
                            }
                        ]
                    }
                ],
                "clinicalStatus": {
                    "coding": [
                        {
                            "code": "active",
                            "display": "Active",
                            "system": "http://terminology.hl7.org/CodeSystem/condition-clinical"
                        }
                    ]
                },
                "code": {
                    "coding": [
                        {
                            "code": "197321007",
                            "display": "Steatosis of liver",
                            "system": "http://snomed.info/sct"
                        }
                    ]
                },
                "recordedDate": "2020-11-17T10:51:05+01:00",
                "subject": {
                    "reference": "Patient/80345e54-a523-478f-98b2-1412e5abb316"
                },
                "verificationStatus": {
                    "coding": [
                        {
                            "code": "confirmed",
                            "display": "Confirmed",
                            "system": "http://terminology.hl7.org/CodeSystem/condition-ver-status"
                        },
                        {
                            "code": "410605003",
                            "display": "Confirmed present (qualifier value)",
                            "system": "http://snomed.info/sct"
                        }
                    ]
                },
                "resourceType": "Condition"
            }
        },
        {
            "request": {
                "method": "POST",
                "url": "Condition"
            },
            "resource": {
                "id": "45100b5b-d7ac-43ec-b790-fc0d2eba3e56",
                "meta": {
                    "profile": [
                        "https://www.netzwerk-universitaetsmedizin.de/fhir/StructureDefinition/chronic-liver-diseases"
                    ]
                },
                "extension": [
                    {
                        "url": "https://www.netzwerk-universitaetsmedizin.de/fhir/StructureDefinition/uncertainty-of-presence",
                        "valueCodeableConcept": {
                            "coding": [
                                {
                                    "code": "261665006",
                                    "display": "Unknown (qualifier value)",
                                    "system": "http://snomed.info/sct"
                                }
                            ],
                            "text": "Presence of condition is unknown."
                        }
                    }
                ],
                "category": [
                    {
                        "coding": [
                            {
                                "code": "408472002",
                                "display": "Hepatology",
                                "system": "http://snomed.info/sct"
                            }
                        ]
                    }
                ],
                "code": {
                    "coding": [
                        {
                            "code": "19943007",
                            "display": "Cirrhosis of liver",
                            "system": "http://snomed.info/sct"
                        }
                    ]
                },
                "recordedDate": "2020-11-17T10:51:05+01:00",
                "subject": {
                    "reference": "Patient/80345e54-a523-478f-98b2-1412e5abb316"
                },
                "resourceType": "Condition"
            }
        },
        {
            "request": {
                "method": "POST",
                "url": "Condition"
            },
            "resource": {
                "id": "3367b556-dfd8-4ecd-aaa5-a7f361829fdf",
                "meta": {
                    "profile": [
                        "https://www.netzwerk-universitaetsmedizin.de/fhir/StructureDefinition/chronic-liver-diseases"
                    ]
                },
                "category": [
                    {
                        "coding": [
                            {
                                "code": "408472002",
                                "display": "Hepatology",
                                "system": "http://snomed.info/sct"
                            }
                        ]
                    }
                ],
                "clinicalStatus": {
                    "coding": [
                        {
                            "code": "active",
                            "display": "Active",
                            "system": "http://terminology.hl7.org/CodeSystem/condition-clinical"
                        }
                    ]
                },
                "code": {
                    "coding": [
                        {
                            "code": "10295004",
                            "display": "Chronic viral hepatitis",
                            "system": "http://snomed.info/sct"
                        }
                    ]
                },
                "recordedDate": "2020-11-17T10:51:05+01:00",
                "subject": {
                    "reference": "Patient/80345e54-a523-478f-98b2-1412e5abb316"
                },
                "verificationStatus": {
                    "coding": [
                        {
                            "code": "confirmed",
                            "display": "Confirmed",
                            "system": "http://terminology.hl7.org/CodeSystem/condition-ver-status"
                        },
                        {
                            "code": "410605003",
                            "display": "Confirmed present (qualifier value)",
                            "system": "http://snomed.info/sct"
                        }
                    ]
                },
                "resourceType": "Condition"
            }
        },
        {
            "request": {
                "method": "POST",
                "url": "Condition"
            },
            "resource": {
                "id": "3cfda6c1-5381-4066-9c6e-82af26c28db0",
                "meta": {
                    "profile": [
                        "https://www.netzwerk-universitaetsmedizin.de/fhir/StructureDefinition/chronic-liver-diseases"
                    ]
                },
                "extension": [
                    {
                        "url": "https://www.netzwerk-universitaetsmedizin.de/fhir/StructureDefinition/uncertainty-of-presence",
                        "valueCodeableConcept": {
                            "coding": [
                                {
                                    "code": "261665006",
                                    "display": "Unknown (qualifier value)",
                                    "system": "http://snomed.info/sct"
                                }
                            ],
                            "text": "Presence of condition is unknown."
                        }
                    }
                ],
                "category": [
                    {
                        "coding": [
                            {
                                "code": "408472002",
                                "display": "Hepatology",
                                "system": "http://snomed.info/sct"
                            }
                        ]
                    }
                ],
                "code": {
                    "coding": [
                        {
                            "code": "235890007",
                            "display": "Autoimmune liver disease",
                            "system": "http://snomed.info/sct"
                        }
                    ]
                },
                "recordedDate": "2020-11-17T10:51:05+01:00",
                "subject": {
                    "reference": "Patient/80345e54-a523-478f-98b2-1412e5abb316"
                },
                "resourceType": "Condition"
            }
        },
        {
            "request": {
                "method": "POST",
                "url": "Condition"
            },
            "resource": {
                "id": "3c4d191e-7000-49df-bdb6-6cb8e82e3c4d",
                "meta": {
                    "profile": [
                        "https://www.netzwerk-universitaetsmedizin.de/fhir/StructureDefinition/rheumatological-immunological-diseases"
                    ]
                },
                "extension": [
                    {
                        "url": "https://www.netzwerk-universitaetsmedizin.de/fhir/StructureDefinition/uncertainty-of-presence",
                        "valueCodeableConcept": {
                            "coding": [
                                {
                                    "code": "261665006",
                                    "display": "Unknown (qualifier value)",
                                    "system": "http://snomed.info/sct"
                                }
                            ],
                            "text": "Presence of condition is unknown."
                        }
                    }
                ],
                "category": [
                    {
                        "coding": [
                            {
                                "code": "394810000",
                                "display": "Rheumatology",
                                "system": "http://snomed.info/sct"
                            },
                            {
                                "code": "408480009",
                                "display": "Clinical immunology",
                                "system": "http://snomed.info/sct"
                            }
                        ]
                    }
                ],
                "code": {
                    "coding": [
                        {
                            "code": "396332003",
                            "display": "Rheumatism",
                            "system": "http://snomed.info/sct"
                        }
                    ]
                },
                "recordedDate": "2020-11-17T10:51:05+01:00",
                "subject": {
                    "reference": "Patient/80345e54-a523-478f-98b2-1412e5abb316"
                },
                "resourceType": "Condition"
            }
        },
        {
            "request": {
                "method": "POST",
                "url": "Condition"
            },
            "resource": {
                "id": "779ba90b-3e31-46aa-aeb2-bb8866b8972e",
                "meta": {
                    "profile": [
                        "https://www.netzwerk-universitaetsmedizin.de/fhir/StructureDefinition/human-immunodeficiency-virus-infection"
                    ]
                },
                "extension": [
                    {
                        "url": "https://www.netzwerk-universitaetsmedizin.de/fhir/StructureDefinition/uncertainty-of-presence",
                        "valueCodeableConcept": {
                            "coding": [
                                {
                                    "code": "261665006",
                                    "display": "Unknown (qualifier value)",
                                    "system": "http://snomed.info/sct"
                                }
                            ],
                            "text": "Presence of condition is unknown."
                        }
                    }
                ],
                "category": [
                    {
                        "coding": [
                            {
                                "code": "394807007",
                                "display": "Infectious diseases (specialty)",
                                "system": "http://snomed.info/sct"
                            }
                        ]
                    }
                ],
                "code": {
                    "coding": [
                        {
                            "code": "86406008",
                            "display": "Human immunodeficiency virus infection",
                            "system": "http://snomed.info/sct"
                        }
                    ]
                },
                "recordedDate": "2020-11-17T10:51:05+01:00",
                "subject": {
                    "reference": "Patient/80345e54-a523-478f-98b2-1412e5abb316"
                },
                "resourceType": "Condition"
            }
        },
        {
            "request": {
                "method": "POST",
                "url": "Condition"
            },
            "resource": {
                "id": "3755a577-6063-404c-a9f1-22896f2bbccb",
                "meta": {
                    "profile": [
                        "https://www.netzwerk-universitaetsmedizin.de/fhir/StructureDefinition/organ-recipient"
                    ]
                },
                "extension": [
                    {
                        "url": "https://www.netzwerk-universitaetsmedizin.de/fhir/StructureDefinition/uncertainty-of-presence",
                        "valueCodeableConcept": {
                            "coding": [
                                {
                                    "code": "261665006",
                                    "display": "Unknown (qualifier value)",
                                    "system": "http://snomed.info/sct"
                                }
                            ],
                            "text": "Presence of condition is unknown."
                        }
                    }
                ],
                "category": [
                    {
                        "coding": [
                            {
                                "code": "788415003",
                                "display": "Transplant medicine",
                                "system": "http://snomed.info/sct"
                            }
                        ]
                    }
                ],
                "code": {
                    "coding": [
                        {
                            "code": "161663000",
                            "display": "History of being a tissue or organ recipient",
                            "system": "http://snomed.info/sct"
                        }
                    ]
                },
                "recordedDate": "2020-11-17T10:51:05+01:00",
                "subject": {
                    "reference": "Patient/80345e54-a523-478f-98b2-1412e5abb316"
                },
                "resourceType": "Condition"
            }
        },
        {
            "request": {
                "method": "POST",
                "url": "Condition"
            },
            "resource": {
                "id": "b8b1fa9b-d9ac-4969-bcb5-9fabd1080cf6",
                "meta": {
                    "profile": [
                        "https://www.netzwerk-universitaetsmedizin.de/fhir/StructureDefinition/diabetes-mellitus"
                    ]
                },
                "extension": [
                    {
                        "url": "https://www.netzwerk-universitaetsmedizin.de/fhir/StructureDefinition/uncertainty-of-presence",
                        "valueCodeableConcept": {
                            "coding": [
                                {
                                    "code": "261665006",
                                    "display": "Unknown (qualifier value)",
                                    "system": "http://snomed.info/sct"
                                }
                            ],
                            "text": "Presence of condition is unknown."
                        }
                    }
                ],
                "category": [
                    {
                        "coding": [
                            {
                                "code": "408475000",
                                "display": "Diabetic medicine",
                                "system": "http://snomed.info/sct"
                            }
                        ]
                    }
                ],
                "code": {
                    "coding": [
                        {
                            "code": "73211009",
                            "display": "Diabetes mellitus",
                            "system": "http://snomed.info/sct"
                        }
                    ]
                },
                "recordedDate": "2020-11-17T10:51:05+01:00",
                "subject": {
                    "reference": "Patient/80345e54-a523-478f-98b2-1412e5abb316"
                },
                "resourceType": "Condition"
            }
        },
        {
            "request": {
                "method": "POST",
                "url": "Condition"
            },
            "resource": {
                "id": "b78cec87-d624-48bb-a429-5ab4f515cc48",
                "meta": {
                    "profile": [
                        "https://www.netzwerk-universitaetsmedizin.de/fhir/StructureDefinition/malignant-neoplastic-disease"
                    ]
                },
                "category": [
                    {
                        "coding": [
                            {
                                "code": "394593009",
                                "display": "Medical oncology (qualifier value)",
                                "system": "http://snomed.info/sct"
                            }
                        ]
                    }
                ],
                "clinicalStatus": {
                    "coding": [
                        {
                            "code": "active",
                            "display": "Active",
                            "system": "http://terminology.hl7.org/CodeSystem/condition-clinical"
                        }
                    ]
                },
                "code": {
                    "coding": [
                        {
                            "code": "363346000",
                            "display": "Malignant neoplastic disease",
                            "system": "http://snomed.info/sct"
                        }
                    ]
                },
                "recordedDate": "2020-11-17T10:51:05+01:00",
                "subject": {
                    "reference": "Patient/80345e54-a523-478f-98b2-1412e5abb316"
                },
                "verificationStatus": {
                    "coding": [
                        {
                            "code": "confirmed",
                            "display": "Confirmed",
                            "system": "http://terminology.hl7.org/CodeSystem/condition-ver-status"
                        },
                        {
                            "code": "410605003",
                            "display": "Confirmed present (qualifier value)",
                            "system": "http://snomed.info/sct"
                        }
                    ]
                },
                "resourceType": "Condition"
            }
        },
        {
            "request": {
                "method": "PUT",
                "url": "Observation/87dbe843-c84d-4fc7-8db1-30447112916c"
            },
            "resource": {
                "id": "87dbe843-c84d-4fc7-8db1-30447112916c",
                "meta": {
                    "profile": [
                        "https://www.netzwerk-universitaetsmedizin.de/fhir/StructureDefinition/smoking-status"
                    ]
                },
                "category": [
                    {
                        "coding": [
                            {
                                "code": "social-history",
                                "display": "Social History",
                                "system": "http://terminology.hl7.org/CodeSystem/observation-category"
                            }
                        ]
                    }
                ],
                "code": {
                    "coding": [
                        {
                            "code": "72166-2",
                            "display": "Tobacco smoking status",
                            "system": "http://loinc.org"
                        }
                    ]
                },
                "effectiveDateTime": "2020-11-17T10:51:05+01:00",
                "status": "final",
                "subject": {
                    "reference": "Patient/80345e54-a523-478f-98b2-1412e5abb316"
                },
                "valueCodeableConcept": {
                    "coding": [
                        {
                            "code": "LA18976-3",
                            "display": "Current every day smoker",
                            "system": "http://loinc.org"
                        }
                    ],
                    "text": "Patient is smoker"
                },
                "resourceType": "Observation"
            }
        },
        {
            "request": {
                "method": "POST",
                "url": "Condition"
            },
            "resource": {
                "id": "df9af64d-0a1e-47a7-a1a1-c8b7f4f90ec9",
                "meta": {
                    "profile": [
                        "https://www.netzwerk-universitaetsmedizin.de/fhir/StructureDefinition/chronic-neurological-mental-diseases"
                    ]
                },
                "extension": [
                    {
                        "url": "https://www.netzwerk-universitaetsmedizin.de/fhir/StructureDefinition/uncertainty-of-presence",
                        "valueCodeableConcept": {
                            "coding": [
                                {
                                    "code": "261665006",
                                    "display": "Unknown (qualifier value)",
                                    "system": "http://snomed.info/sct"
                                }
                            ],
                            "text": "Presence of condition is unknown."
                        }
                    }
                ],
                "category": [
                    {
                        "coding": [
                            {
                                "code": "394591006",
                                "display": "Neurology",
                                "system": "http://snomed.info/sct"
                            },
                            {
                                "code": "394587001",
                                "display": "Psychiatry",
                                "system": "http://snomed.info/sct"
                            }
                        ]
                    }
                ],
                "code": {
                    "coding": [
                        {
                            "code": "74732009",
                            "display": "Mental disorder",
                            "system": "http://snomed.info/sct"
                        }
                    ]
                },
                "recordedDate": "2020-11-17T10:51:05+01:00",
                "subject": {
                    "reference": "Patient/80345e54-a523-478f-98b2-1412e5abb316"
                },
                "resourceType": "Condition"
            }
        },
        {
            "request": {
                "method": "POST",
                "url": "Condition"
            },
            "resource": {
                "id": "f1b07c8c-f9c0-4704-886a-89c429b8e4d8",
                "meta": {
                    "profile": [
                        "https://www.netzwerk-universitaetsmedizin.de/fhir/StructureDefinition/chronic-neurological-mental-diseases"
                    ]
                },
                "category": [
                    {
                        "coding": [
                            {
                                "code": "394591006",
                                "display": "Neurology",
                                "system": "http://snomed.info/sct"
                            },
                            {
                                "code": "394587001",
                                "display": "Psychiatry",
                                "system": "http://snomed.info/sct"
                            }
                        ]
                    }
                ],
                "code": {
                    "coding": [
                        {
                            "code": "128283000",
                            "display": "Chronic nervous system disorder",
                            "system": "http://snomed.info/sct"
                        }
                    ]
                },
                "recordedDate": "2020-11-17T10:51:05+01:00",
                "subject": {
                    "reference": "Patient/80345e54-a523-478f-98b2-1412e5abb316"
                },
                "verificationStatus": {
                    "coding": [
                        {
                            "code": "refuted",
                            "display": "Refuted",
                            "system": "http://terminology.hl7.org/CodeSystem/condition-ver-status"
                        },
                        {
                            "code": "410594000",
                            "display": "Definitely NOT present (qualifier value)",
                            "system": "http://snomed.info/sct"
                        }
                    ]
                },
                "resourceType": "Condition"
            }
        },
        {
            "request": {
                "method": "POST",
                "url": "Procedure"
            },
            "resource": {
                "id": "ba8e274b-3a0c-4ab3-b64e-203b36edfd71",
                "meta": {
                    "profile": [
                        "https://www.netzwerk-universitaetsmedizin.de/fhir/StructureDefinition/respiratory-therapies"
                    ]
                },
                "category": {
                    "coding": [
                        {
                            "code": "277132007",
                            "display": "Therapeutic procedure",
                            "system": "http://snomed.info/sct"
                        }
                    ]
                },
                "code": {
                    "coding": [
                        {
                            "code": "53950000",
                            "display": "Respiratory therapy",
                            "system": "http://snomed.info/sct"
                        }
                    ]
                },
                "performedDateTime": "2020-11-17T10:51:05+01:00",
                "status": "in-progress",
                "subject": {
                    "reference": "Patient/80345e54-a523-478f-98b2-1412e5abb316"
                },
                "resourceType": "Procedure"
            }
        },
        {
            "request": {
                "method": "POST",
                "url": "Condition"
            },
            "resource": {
                "id": "14af212f-ef7b-4a56-87d8-6e3db214c5de",
                "meta": {
                    "profile": [
                        "https://www.netzwerk-universitaetsmedizin.de/fhir/StructureDefinition/chronic-kidney-diseases"
                    ]
                },
                "extension": [
                    {
                        "url": "https://www.netzwerk-universitaetsmedizin.de/fhir/StructureDefinition/uncertainty-of-presence",
                        "valueCodeableConcept": {
                            "coding": [
                                {
                                    "code": "261665006",
                                    "display": "Unknown (qualifier value)",
                                    "system": "http://snomed.info/sct"
                                }
                            ],
                            "text": "Presence of condition is unknown."
                        }
                    }
                ],
                "category": [
                    {
                        "coding": [
                            {
                                "code": "394589003",
                                "display": "Nephrology (qualifier value)",
                                "system": "http://snomed.info/sct"
                            }
                        ]
                    }
                ],
                "code": {
                    "coding": [
                        {
                            "code": "709044004",
                            "display": "Chronic kidney disease (disorder)",
                            "system": "http://snomed.info/sct"
                        }
                    ]
                },
                "recordedDate": "2020-11-17T10:51:05+01:00",
                "subject": {
                    "reference": "Patient/80345e54-a523-478f-98b2-1412e5abb316"
                },
                "resourceType": "Condition"
            }
        },
        {
            "request": {
                "method": "PUT",
                "url": "Observation/1abf329e-5d62-4697-94bc-c12edcee5adf"
            },
            "resource": {
                "id": "1abf329e-5d62-4697-94bc-c12edcee5adf",
                "meta": {
                    "profile": [
                        "https://www.netzwerk-universitaetsmedizin.de/fhir/StructureDefinition/history-of-travel"
                    ]
                },
                "category": [
                    {
                        "coding": [
                            {
                                "code": "social-history",
                                "system": "http://terminology.hl7.org/CodeSystem/observation-category"
                            }
                        ]
                    }
                ],
                "code": {
                    "coding": [
                        {
                            "code": "8691-8",
                            "display": "History of Travel",
                            "system": "http://loinc.org"
                        },
                        {
                            "code": "443846001",
                            "display": "Detail of history of travel (observable entity)",
                            "system": "http://snomed.info/sct"
                        }
                    ],
                    "text": "History of travel"
                },
                "component": [
                    {
                        "code": {
                            "coding": [
                                {
                                    "code": "82752-7",
                                    "display": "Date travel started",
                                    "system": "http://loinc.org"
                                }
                            ],
                            "text": "Travel start date"
                        },
                        "valueDateTime": "2020-10-22"
                    },
                    {
                        "code": {
                            "coding": [
                                {
                                    "code": "94651-7",
                                    "display": "Country of travel",
                                    "system": "http://loinc.org"
                                }
                            ],
                            "text": "Country of travel"
                        },
                        "valueCodeableConcept": {
                            "coding": [
                                {
                                    "code": "DE",
                                    "display": "Germany",
                                    "system": "urn:iso:std:iso:3166"
                                }
                            ],
                            "text": "Germany"
                        }
                    },
                    {
                        "code": {
                            "coding": [
                                {
                                    "code": "82754-3",
                                    "display": "State of travel",
                                    "system": "http://loinc.org"
                                }
                            ],
                            "text": "State of travel"
                        },
                        "valueCodeableConcept": {
                            "coding": [
                                {
                                    "code": "DE-HH",
                                    "display": "Hamburg",
                                    "system": "urn:iso:std:iso:3166-2:de"
                                }
                            ],
                            "text": "Hamburg"
                        }
                    },
                    {
                        "code": {
                            "coding": [
                                {
                                    "code": "94653-3",
                                    "display": "City of travel",
                                    "system": "http://loinc.org"
                                }
                            ],
                            "text": "City of travel"
                        },
                        "valueString": "Hamburg"
                    },
                    {
                        "code": {
                            "coding": [
                                {
                                    "code": "91560-3",
                                    "display": "Date of departure from travel destination",
                                    "system": "http://loinc.org"
                                }
                            ],
                            "text": "Travel end date"
                        },
                        "valueDateTime": "2020-11-01"
                    }
                ],
                "effectiveDateTime": "2020-11-17T10:51:05+01:00",
                "identifier": [
                    {
                        "assigner": {
                            "reference": "Organization/Charit\u00e9"
                        },
                        "system": "https://www.charite.de/fhir/CodeSystem/observation-identifiers",
                        "type": {
                            "coding": [
                                {
                                    "code": "OBI",
                                    "system": "http://terminology.hl7.org/CodeSystem/v2-0203"
                                }
                            ]
                        },
                        "value": "8691-8_HistoryOfTravel"
                    }
                ],
                "status": "final",
                "subject": {
                    "reference": "Patient/80345e54-a523-478f-98b2-1412e5abb316"
                },
                "valueCodeableConcept": {
                    "coding": [
                        {
                            "code": "373066001",
                            "display": "Yes (qualifier value)",
                            "system": "http://snomed.info/sct"
                        }
                    ]
                },
                "resourceType": "Observation"
            }
        },
        {
            "request": {
                "method": "POST",
                "url": "Condition"
            },
            "resource": {
                "id": "72e89c7a-a0bd-4a53-8253-f8cdb382fc24",
                "meta": {
                    "profile": [
                        "https://www.netzwerk-universitaetsmedizin.de/fhir/StructureDefinition/gastrointestinal-ulcers"
                    ]
                },
                "extension": [
                    {
                        "url": "https://www.netzwerk-universitaetsmedizin.de/fhir/StructureDefinition/uncertainty-of-presence",
                        "valueCodeableConcept": {
                            "coding": [
                                {
                                    "code": "261665006",
                                    "display": "Unknown (qualifier value)",
                                    "system": "http://snomed.info/sct"
                                }
                            ],
                            "text": "Presence of condition is unknown."
                        }
                    }
                ],
                "category": [
                    {
                        "coding": [
                            {
                                "code": "394584008",
                                "display": "Gastroenterology",
                                "system": "http://snomed.info/sct"
                            }
                        ]
                    }
                ],
                "code": {
                    "coding": [
                        {
                            "code": "40845000",
                            "display": "Gastrointestinal ulcer",
                            "system": "http://snomed.info/sct"
                        }
                    ]
                },
                "recordedDate": "2020-11-17T10:51:05+01:00",
                "subject": {
                    "reference": "Patient/80345e54-a523-478f-98b2-1412e5abb316"
                },
                "resourceType": "Condition"
            }
        },
        {
            "request": {
                "method": "POST",
                "url": "Immunization"
            },
            "resource": {
                "id": "8890d2f4-b7c4-430d-ae2a-02dee5ee6a42",
                "meta": {
                    "profile": [
                        "https://www.netzwerk-universitaetsmedizin.de/fhir/StructureDefinition/immunization"
                    ]
                },
                "occurrenceDateTime": "2020-10-06",
                "patient": {
                    "reference": "Patient/80345e54-a523-478f-98b2-1412e5abb316"
                },
                "protocolApplied": [
                    {
                        "doseNumberString": "unknown",
                        "targetDisease": [
                            {
                                "coding": [
                                    {
                                        "code": "16814004",
                                        "display": "Pneumococcal infectious disease",
                                        "system": "http://snomed.info/sct"
                                    }
                                ]
                            }
                        ]
                    }
                ],
                "status": "completed",
                "vaccineCode": {
                    "coding": [
                        {
                            "code": "J07AL",
                            "display": "Pneumokokken-Impfstoffe",
                            "system": "http://fhir.de/CodeSystem/dimdi/atc"
                        },
                        {
                            "code": "333598008",
                            "display": "Pneumococcal vaccine",
                            "system": "http://snomed.info/sct"
                        }
                    ]
                },
                "resourceType": "Immunization"
            }
        },
        {
            "request": {
                "method": "POST",
                "url": "Consent"
            },
            "resource": {
                "id": "e582c84c-2ddf-4130-aef6-563d687a958a",
                "meta": {
                    "profile": [
                        "https://www.netzwerk-universitaetsmedizin.de/fhir/StructureDefinition/do-not-resuscitate-order"
                    ]
                },
                "category": [
                    {
                        "coding": [
                            {
                                "code": "dnr",
                                "display": "Do Not Resuscitate",
                                "system": "http://terminology.hl7.org/CodeSystem/consentcategorycodes"
                            }
                        ]
                    }
                ],
                "patient": {
                    "reference": "Patient/80345e54-a523-478f-98b2-1412e5abb316"
                },
                "policy": [
                    {
                        "uri": "https://www.aerzteblatt.de/archiv/65440/DNR-Anordnungen-Das-fehlende-Bindeglied"
                    }
                ],
                "provision": {
                    "code": [
                        {
                            "coding": [
                                {
                                    "code": "304252001",
                                    "display": "For resuscitation (finding)",
                                    "system": "http://snomed.info/sct"
                                }
                            ]
                        }
                    ]
                },
                "scope": {
                    "coding": [
                        {
                            "code": "adr",
                            "display": "Advanced Care Directive",
                            "system": "http://terminology.hl7.org/CodeSystem/consentscope"
                        }
                    ]
                },
                "status": "active",
                "resourceType": "Consent"
            }
        },
        {
            "request": {
                "method": "PUT",
                "url": "DiagnosticReport/29626146-357c-4991-b42f-f3acefaab8c0"
            },
            "resource": {
                "id": "29626146-357c-4991-b42f-f3acefaab8c0",
                "meta": {
                    "profile": [
                        "https://www.netzwerk-universitaetsmedizin.de/fhir/StructureDefinition/diagnostic-report-radiology"
                    ]
                },
                "category": [
                    {
                        "coding": [
                            {
                                "code": "18726-0",
                                "display": "Radiology studies (set)",
                                "system": "http://loinc.org"
                            },
                            {
                                "code": "RAD",
                                "display": "Radiology",
                                "system": "http://terminology.hl7.org/CodeSystem/v2-0074"
                            }
                        ]
                    }
                ],
                "code": {
                    "coding": [
                        {
                            "code": "18748-4",
                            "display": "Diagnostic imaging study",
                            "system": "http://loinc.org"
                        }
                    ]
                },
                "conclusion": "Unspezifischer Befund",
                "conclusionCode": [
                    {
                        "coding": [
                            {
                                "code": "118247008:363713009=373068000",
                                "display": "|Radiologic finding (finding)|:|Has interpretation (attribute)|=|Undetermined (qualifier value)|",
                                "system": "http://snomed.info/sct"
                            }
                        ]
                    }
                ],
                "effectiveDateTime": "2020-11-17T10:51:05+01:00",
                "status": "final",
                "subject": {
                    "reference": "Patient/80345e54-a523-478f-98b2-1412e5abb316"
                },
                "resourceType": "DiagnosticReport"
            }
        },
        {
            "request": {
                "method": "POST",
                "url": "Procedure"
            },
            "resource": {
                "id": "94856d5b-481c-4af8-8af2-f276e23ccb7f",
                "meta": {
                    "profile": [
                        "https://www.netzwerk-universitaetsmedizin.de/fhir/StructureDefinition/radiology-procedures"
                    ]
                },
                "bodySite": [
                    {
                        "coding": [
                            {
                                "code": "39607008",
                                "display": "Lung structure (body structure)",
                                "system": "http://snomed.info/sct"
                            }
                        ]
                    }
                ],
                "category": {
                    "coding": [
                        {
                            "code": "103693007",
                            "display": "Diagnostic procedure (procedure)",
                            "system": "http://snomed.info/sct"
                        }
                    ]
                },
                "code": {
                    "coding": [
                        {
                            "code": "168537006",
                            "display": "Plain radiography",
                            "system": "http://snomed.info/sct"
                        },
                        {
                            "code": "RG",
                            "display": "Radiographic imaging",
                            "system": "http://dicom.nema.org/resources/ontology/DCM"
                        }
                    ],
                    "text": "Chest x-ray"
                },
                "performedDateTime": "2020-11-17T10:51:05+01:00",
                "report": [
                    {
                        "reference": "DiagnosticReport/29626146-357c-4991-b42f-f3acefaab8c0"
                    }
                ],
                "status": "completed",
                "subject": {
                    "reference": "Patient/80345e54-a523-478f-98b2-1412e5abb316"
                },
                "resourceType": "Procedure"
            }
        },
        {
            "request": {
                "method": "POST",
                "url": "Procedure"
            },
            "resource": {
                "id": "2de9a5f6-23ec-4ee0-a6de-2326dcb633ff",
                "meta": {
                    "profile": [
                        "https://www.netzwerk-universitaetsmedizin.de/fhir/StructureDefinition/radiology-procedures"
                    ]
                },
                "bodySite": [
                    {
                        "coding": [
                            {
                                "code": "39607008",
                                "display": "Lung structure (body structure)",
                                "system": "http://snomed.info/sct"
                            }
                        ]
                    }
                ],
                "category": {
                    "coding": [
                        {
                            "code": "103693007",
                            "display": "Diagnostic procedure (procedure)",
                            "system": "http://snomed.info/sct"
                        }
                    ]
                },
                "code": {
                    "coding": [
                        {
                            "code": "77477000",
                            "display": "Computerized axial tomography (procedure)",
                            "system": "http://snomed.info/sct"
                        },
                        {
                            "code": "CT",
                            "display": "Computed Tomography",
                            "system": "http://dicom.nema.org/resources/ontology/DCM"
                        }
                    ],
                    "text": "Computed Tomography"
                },
                "performedDateTime": "2020-11-17T10:51:05+01:00",
                "report": [
                    {
                        "reference": "DiagnosticReport/29626146-357c-4991-b42f-f3acefaab8c0"
                    }
                ],
                "status": "completed",
                "subject": {
                    "reference": "Patient/80345e54-a523-478f-98b2-1412e5abb316"
                },
                "resourceType": "Procedure"
            }
        },
        {
            "request": {
                "method": "POST",
                "url": "Procedure"
            },
            "resource": {
                "id": "123a7e95-2d21-4b6e-a175-4586b94f6f98",
                "meta": {
                    "profile": [
                        "https://www.netzwerk-universitaetsmedizin.de/fhir/StructureDefinition/radiology-procedures"
                    ]
                },
                "bodySite": [
                    {
                        "coding": [
                            {
                                "code": "39607008",
                                "display": "Lung structure (body structure)",
                                "system": "http://snomed.info/sct"
                            }
                        ]
                    }
                ],
                "category": {
                    "coding": [
                        {
                            "code": "103693007",
                            "display": "Diagnostic procedure (procedure)",
                            "system": "http://snomed.info/sct"
                        }
                    ]
                },
                "code": {
                    "coding": [
                        {
                            "code": "16310003",
                            "display": "Diagnostic ultrasonography (procedure)",
                            "system": "http://snomed.info/sct"
                        },
                        {
                            "code": "US",
                            "display": "Ultrasound",
                            "system": "http://dicom.nema.org/resources/ontology/DCM"
                        }
                    ],
                    "text": "Ultrasound"
                },
                "performedDateTime": "2020-11-17T10:51:05+01:00",
                "report": [
                    {
                        "reference": "DiagnosticReport/29626146-357c-4991-b42f-f3acefaab8c0"
                    }
                ],
                "status": "completed",
                "subject": {
                    "reference": "Patient/80345e54-a523-478f-98b2-1412e5abb316"
                },
                "resourceType": "Procedure"
            }
        },
        {
            "request": {
                "method": "PUT",
                "url": "Observation/6221452d-eecc-465d-8315-baca68a955e6"
            },
            "resource": {
                "id": "6221452d-eecc-465d-8315-baca68a955e6",
                "meta": {
                    "profile": [
                        "https://www.netzwerk-universitaetsmedizin.de/fhir/StructureDefinition/known-exposure"
                    ]
                },
                "category": [
                    {
                        "coding": [
                            {
                                "code": "social-history",
                                "system": "http://terminology.hl7.org/CodeSystem/observation-category"
                            }
                        ]
                    }
                ],
                "code": {
                    "coding": [
                        {
                            "code": "88636-6",
                            "display": "Known exposure [Identifier]",
                            "system": "http://loinc.org"
                        }
                    ],
                    "text": "Known exposure"
                },
                "effectiveDateTime": "2020-11-14",
                "identifier": [
                    {
                        "assigner": {
                            "reference": "Organization/Charit\u00e9"
                        },
                        "system": "https://www.charite.de/fhir/CodeSystem/observation-identifiers",
                        "type": {
                            "coding": [
                                {
                                    "code": "OBI",
                                    "system": "http://terminology.hl7.org/CodeSystem/v2-0203"
                                }
                            ]
                        },
                        "value": "88636-6_KnownExposure"
                    }
                ],
                "status": "final",
                "subject": {
                    "reference": "Patient/80345e54-a523-478f-98b2-1412e5abb316"
                },
                "valueCodeableConcept": {
                    "coding": [
                        {
                            "code": "840546002",
                            "display": "Exposure to severe acute respiratory syndrome coronavirus 2 (event)",
                            "system": "http://snomed.info/sct"
                        }
                    ]
                },
                "resourceType": "Observation"
            }
        },
        {
            "request": {
                "method": "POST",
                "url": "Condition"
            },
            "resource": {
                "id": "af0e0e55-3152-4e4b-9b83-dd68ab93df63",
                "meta": {
                    "profile": [
                        "https://www.netzwerk-universitaetsmedizin.de/fhir/StructureDefinition/complications-covid-19"
                    ]
                },
                "category": [
                    {
                        "coding": [
                            {
                                "code": "116223007",
                                "display": "Complication (disorder)",
                                "system": "http://snomed.info/sct"
                            }
                        ]
                    }
                ],
                "code": {
                    "coding": [
                        {
                            "code": "128601007",
                            "display": "Infectious disease of lung (disorder)",
                            "system": "http://snomed.info/sct"
                        }
                    ]
                },
                "recordedDate": "2020-11-17T10:51:05+01:00",
                "subject": {
                    "reference": "Patient/80345e54-a523-478f-98b2-1412e5abb316"
                },
                "verificationStatus": {
                    "coding": [
                        {
                            "code": "refuted",
                            "display": "Refuted",
                            "system": "http://terminology.hl7.org/CodeSystem/condition-ver-status"
                        },
                        {
                            "code": "410594000",
                            "display": "Definitely NOT present (qualifier value)",
                            "system": "http://snomed.info/sct"
                        }
                    ]
                },
                "resourceType": "Condition"
            }
        },
        {
            "request": {
                "method": "POST",
                "url": "Condition"
            },
            "resource": {
                "id": "1d6e7761-1bee-443c-9307-3870a0b89202",
                "meta": {
                    "profile": [
                        "https://www.netzwerk-universitaetsmedizin.de/fhir/StructureDefinition/complications-covid-19"
                    ]
                },
                "extension": [
                    {
                        "url": "https://www.netzwerk-universitaetsmedizin.de/fhir/StructureDefinition/uncertainty-of-presence",
                        "valueCodeableConcept": {
                            "coding": [
                                {
                                    "code": "261665006",
                                    "display": "Unknown (qualifier value)",
                                    "system": "http://snomed.info/sct"
                                }
                            ],
                            "text": "Presence of condition is unknown."
                        }
                    }
                ],
                "category": [
                    {
                        "coding": [
                            {
                                "code": "116223007",
                                "display": "Complication (disorder)",
                                "system": "http://snomed.info/sct"
                            }
                        ]
                    }
                ],
                "code": {
                    "coding": [
                        {
                            "code": "434156008",
                            "display": "Infectious agent in bloodstream (finding)",
                            "system": "http://snomed.info/sct"
                        }
                    ]
                },
                "recordedDate": "2020-11-17T10:51:05+01:00",
                "subject": {
                    "reference": "Patient/80345e54-a523-478f-98b2-1412e5abb316"
                },
                "resourceType": "Condition"
            }
        },
        {
            "request": {
                "method": "POST",
                "url": "Condition"
            },
            "resource": {
                "id": "7a328422-42b0-46ae-90c3-ee2dd7a536bf",
                "meta": {
                    "profile": [
                        "https://www.netzwerk-universitaetsmedizin.de/fhir/StructureDefinition/complications-covid-19"
                    ]
                },
                "category": [
                    {
                        "coding": [
                            {
                                "code": "116223007",
                                "display": "Complication (disorder)",
                                "system": "http://snomed.info/sct"
                            }
                        ]
                    }
                ],
                "code": {
                    "coding": [
                        {
                            "code": "111293003",
                            "display": "Venous thrombosis (disorder)",
                            "system": "http://snomed.info/sct"
                        }
                    ]
                },
                "recordedDate": "2020-11-17T10:51:05+01:00",
                "subject": {
                    "reference": "Patient/80345e54-a523-478f-98b2-1412e5abb316"
                },
                "verificationStatus": {
                    "coding": [
                        {
                            "code": "refuted",
                            "display": "Refuted",
                            "system": "http://terminology.hl7.org/CodeSystem/condition-ver-status"
                        },
                        {
                            "code": "410594000",
                            "display": "Definitely NOT present (qualifier value)",
                            "system": "http://snomed.info/sct"
                        }
                    ]
                },
                "resourceType": "Condition"
            }
        },
        {
            "request": {
                "method": "POST",
                "url": "Condition"
            },
            "resource": {
                "id": "21d703c4-2520-4a5a-b74e-8903cb30e0f0",
                "meta": {
                    "profile": [
                        "https://www.netzwerk-universitaetsmedizin.de/fhir/StructureDefinition/complications-covid-19"
                    ]
                },
                "category": [
                    {
                        "coding": [
                            {
                                "code": "116223007",
                                "display": "Complication (disorder)",
                                "system": "http://snomed.info/sct"
                            }
                        ]
                    }
                ],
                "code": {
                    "coding": [
                        {
                            "code": "59282003",
                            "display": "Pulmonary embolism (disorder)",
                            "system": "http://snomed.info/sct"
                        }
                    ]
                },
                "recordedDate": "2020-11-17T10:51:05+01:00",
                "subject": {
                    "reference": "Patient/80345e54-a523-478f-98b2-1412e5abb316"
                },
                "verificationStatus": {
                    "coding": [
                        {
                            "code": "refuted",
                            "display": "Refuted",
                            "system": "http://terminology.hl7.org/CodeSystem/condition-ver-status"
                        },
                        {
                            "code": "410594000",
                            "display": "Definitely NOT present (qualifier value)",
                            "system": "http://snomed.info/sct"
                        }
                    ]
                },
                "resourceType": "Condition"
            }
        },
        {
            "request": {
                "method": "POST",
                "url": "Condition"
            },
            "resource": {
                "id": "51f67a56-4274-4240-a690-94e3495bc015",
                "meta": {
                    "profile": [
                        "https://www.netzwerk-universitaetsmedizin.de/fhir/StructureDefinition/complications-covid-19"
                    ]
                },
                "category": [
                    {
                        "coding": [
                            {
                                "code": "116223007",
                                "display": "Complication (disorder)",
                                "system": "http://snomed.info/sct"
                            }
                        ]
                    }
                ],
                "code": {
                    "coding": [
                        {
                            "code": "230690007",
                            "display": "Cerebrovascular accident (disorder)",
                            "system": "http://snomed.info/sct"
                        }
                    ]
                },
                "recordedDate": "2020-11-17T10:51:05+01:00",
                "subject": {
                    "reference": "Patient/80345e54-a523-478f-98b2-1412e5abb316"
                },
                "verificationStatus": {
                    "coding": [
                        {
                            "code": "refuted",
                            "display": "Refuted",
                            "system": "http://terminology.hl7.org/CodeSystem/condition-ver-status"
                        },
                        {
                            "code": "410594000",
                            "display": "Definitely NOT present (qualifier value)",
                            "system": "http://snomed.info/sct"
                        }
                    ]
                },
                "resourceType": "Condition"
            }
        },
        {
            "request": {
                "method": "POST",
                "url": "Condition"
            },
            "resource": {
                "id": "5f2cd351-c1dc-4536-b7b2-ca91bc9dec90",
                "meta": {
                    "profile": [
                        "https://www.netzwerk-universitaetsmedizin.de/fhir/StructureDefinition/complications-covid-19"
                    ]
                },
                "category": [
                    {
                        "coding": [
                            {
                                "code": "116223007",
                                "display": "Complication (disorder)",
                                "system": "http://snomed.info/sct"
                            }
                        ]
                    }
                ],
                "clinicalStatus": {
                    "coding": [
                        {
                            "code": "active",
                            "display": "Active",
                            "system": "http://terminology.hl7.org/CodeSystem/condition-clinical"
                        }
                    ]
                },
                "code": {
                    "coding": [
                        {
                            "code": "22298006",
                            "display": "Myocardial infarction (disorder)",
                            "system": "http://snomed.info/sct"
                        }
                    ]
                },
                "recordedDate": "2020-11-17T10:51:05+01:00",
                "subject": {
                    "reference": "Patient/80345e54-a523-478f-98b2-1412e5abb316"
                },
                "verificationStatus": {
                    "coding": [
                        {
                            "code": "confirmed",
                            "display": "Confirmed",
                            "system": "http://terminology.hl7.org/CodeSystem/condition-ver-status"
                        },
                        {
                            "code": "410605003",
                            "display": "Confirmed present (qualifier value)",
                            "system": "http://snomed.info/sct"
                        }
                    ]
                },
                "resourceType": "Condition"
            }
        },
        {
            "request": {
                "method": "POST",
                "url": "Condition"
            },
            "resource": {
                "id": "32581665-0a45-4b8e-8277-13a253b7c682",
                "meta": {
                    "profile": [
                        "https://www.netzwerk-universitaetsmedizin.de/fhir/StructureDefinition/complications-covid-19"
                    ]
                },
                "category": [
                    {
                        "coding": [
                            {
                                "code": "116223007",
                                "display": "Complication (disorder)",
                                "system": "http://snomed.info/sct"
                            }
                        ]
                    }
                ],
                "code": {
                    "coding": [
                        {
                            "code": "129561000119108",
                            "display": "Pre-renal acute kidney injury (disorder)",
                            "system": "http://snomed.info/sct"
                        }
                    ]
                },
                "recordedDate": "2020-11-17T10:51:05+01:00",
                "subject": {
                    "reference": "Patient/80345e54-a523-478f-98b2-1412e5abb316"
                },
                "verificationStatus": {
                    "coding": [
                        {
                            "code": "refuted",
                            "display": "Refuted",
                            "system": "http://terminology.hl7.org/CodeSystem/condition-ver-status"
                        },
                        {
                            "code": "410594000",
                            "display": "Definitely NOT present (qualifier value)",
                            "system": "http://snomed.info/sct"
                        }
                    ]
                },
                "resourceType": "Condition"
            }
        },
        {
            "request": {
                "method": "POST",
                "url": "Condition"
            },
            "resource": {
                "id": "39d62b2b-aed6-498f-a887-29a195cfe0e9",
                "meta": {
                    "profile": [
                        "https://www.netzwerk-universitaetsmedizin.de/fhir/StructureDefinition/diagnosis-covid-19"
                    ]
                },
                "category": [
                    {
                        "coding": [
                            {
                                "code": "394807007",
                                "display": "Infectious diseases (specialty) (qualifier value)",
                                "system": "http://snomed.info/sct"
                            }
                        ]
                    }
                ],
                "clinicalStatus": {
                    "coding": [
                        {
                            "code": "active",
                            "display": "Active",
                            "system": "http://terminology.hl7.org/CodeSystem/condition-clinical"
                        }
                    ]
                },
                "code": {
                    "coding": [
                        {
                            "code": "840539006",
                            "display": "Disease caused by Severe acute respiratory syndrome coronavirus 2 (disorder)",
                            "system": "http://snomed.info/sct"
                        }
                    ]
                },
                "recordedDate": "2020-11-17T10:51:05+01:00",
                "stage": [
                    {
                        "summary": {
                            "coding": [
                                {
                                    "code": "261665006",
                                    "display": "Unknown (qualifier value)",
                                    "system": "http://snomed.info/sct"
                                }
                            ],
                            "text": "Unknown"
                        },
                        "type": {
                            "coding": [
                                {
                                    "code": "88859-4",
                                    "display": "Disease stage score for risk calculation",
                                    "system": "http://loinc.org"
                                }
                            ]
                        }
                    }
                ],
                "subject": {
                    "reference": "Patient/80345e54-a523-478f-98b2-1412e5abb316"
                },
                "verificationStatus": {
                    "coding": [
                        {
                            "code": "confirmed",
                            "display": "Confirmed",
                            "system": "http://terminology.hl7.org/CodeSystem/condition-ver-status"
                        },
                        {
                            "code": "410605003",
                            "display": "Confirmed present (qualifier value)",
                            "system": "http://snomed.info/sct"
                        }
                    ]
                },
                "resourceType": "Condition"
            }
        },
        {
            "request": {
                "method": "PUT",
                "url": "Observation/eba77148-c6a4-4cfd-9e5a-46585c0eaf7e"
            },
            "resource": {
                "id": "eba77148-c6a4-4cfd-9e5a-46585c0eaf7e",
                "meta": {
                    "profile": [
                        "https://www.medizininformatik-initiative.de/fhir/core/modul-labor/StructureDefinition/ObservationLab"
                    ]
                },
                "category": [
                    {
                        "coding": [
                            {
                                "code": "26436-6",
                                "system": "http://loinc.org"
                            },
                            {
                                "code": "laboratory",
                                "system": "http://terminology.hl7.org/CodeSystem/observation-category"
                            }
                        ]
                    }
                ],
                "code": {
                    "coding": [
                        {
                            "code": "1988-5",
                            "display": "C reactive protein [Mass/volume] in Serum or Plasma",
                            "system": "http://loinc.org"
                        }
                    ],
                    "text": "CRP"
                },
                "effectiveDateTime": "2020-11-17T10:51:05+01:00",
                "identifier": [
                    {
                        "assigner": {
                            "reference": "Organization/Charit\u00e9"
                        },
                        "system": "https://www.charite.de/fhir/CodeSystem/lab-identifiers",
                        "type": {
                            "coding": [
                                {
                                    "code": "OBI",
                                    "system": "http://terminology.hl7.org/CodeSystem/v2-0203"
                                }
                            ]
                        },
                        "value": "1988-5_c-reactive-protein-mass-per-volume-in-serum-or-plasma"
                    }
                ],
                "status": "final",
                "subject": {
                    "reference": "Patient/80345e54-a523-478f-98b2-1412e5abb316"
                },
                "valueQuantity": {
                    "code": "mg/L",
                    "system": "http://unitsofmeasure.org",
                    "unit": "mg/L",
                    "value": 4.4
                },
                "resourceType": "Observation"
            }
        },
        {
            "request": {
                "method": "PUT",
                "url": "Observation/8125e303-84c6-4964-9c9a-0da74636af21"
            },
            "resource": {
                "id": "8125e303-84c6-4964-9c9a-0da74636af21",
                "meta": {
                    "profile": [
                        "https://www.medizininformatik-initiative.de/fhir/core/modul-labor/StructureDefinition/ObservationLab"
                    ]
                },
                "category": [
                    {
                        "coding": [
                            {
                                "code": "26436-6",
                                "system": "http://loinc.org"
                            },
                            {
                                "code": "laboratory",
                                "system": "http://terminology.hl7.org/CodeSystem/observation-category"
                            }
                        ]
                    }
                ],
                "code": {
                    "coding": [
                        {
                            "code": "2276-4",
                            "display": "Ferritin [Mass/volume] in Serum or Plasma",
                            "system": "http://loinc.org"
                        }
                    ],
                    "text": "Ferritin"
                },
                "effectiveDateTime": "2020-11-17T10:51:05+01:00",
                "identifier": [
                    {
                        "assigner": {
                            "reference": "Organization/Charit\u00e9"
                        },
                        "system": "https://www.charite.de/fhir/CodeSystem/lab-identifiers",
                        "type": {
                            "coding": [
                                {
                                    "code": "OBI",
                                    "system": "http://terminology.hl7.org/CodeSystem/v2-0203"
                                }
                            ]
                        },
                        "value": "2276-4_ferritin-mass-per-volume-in-serum-or-plasma"
                    }
                ],
                "status": "final",
                "subject": {
                    "reference": "Patient/80345e54-a523-478f-98b2-1412e5abb316"
                },
                "valueQuantity": {
                    "code": "ng/mL",
                    "system": "http://unitsofmeasure.org",
                    "unit": "ng/mL",
                    "value": 137.3
                },
                "resourceType": "Observation"
            }
        },
        {
            "request": {
                "method": "PUT",
                "url": "Observation/9a13a077-057e-46df-b0e5-7ecf4b51035a"
            },
            "resource": {
                "id": "9a13a077-057e-46df-b0e5-7ecf4b51035a",
                "meta": {
                    "profile": [
                        "https://www.medizininformatik-initiative.de/fhir/core/modul-labor/StructureDefinition/ObservationLab"
                    ]
                },
                "category": [
                    {
                        "coding": [
                            {
                                "code": "26436-6",
                                "system": "http://loinc.org"
                            },
                            {
                                "code": "laboratory",
                                "system": "http://terminology.hl7.org/CodeSystem/observation-category"
                            }
                        ]
                    }
                ],
                "code": {
                    "coding": [
                        {
                            "code": "1971-1",
                            "display": "Bilirubin.indirect [Mass/volume] in Serum or Plasma",
                            "system": "http://loinc.org"
                        }
                    ],
                    "text": "Bilirubin"
                },
                "effectiveDateTime": "2020-11-17T10:51:05+01:00",
                "identifier": [
                    {
                        "assigner": {
                            "reference": "Organization/Charit\u00e9"
                        },
                        "system": "https://www.charite.de/fhir/CodeSystem/lab-identifiers",
                        "type": {
                            "coding": [
                                {
                                    "code": "OBI",
                                    "system": "http://terminology.hl7.org/CodeSystem/v2-0203"
                                }
                            ]
                        },
                        "value": "1971-1_bilirubin.indirect-mass-per-volume-in-serum-or-plasma"
                    }
                ],
                "status": "final",
                "subject": {
                    "reference": "Patient/80345e54-a523-478f-98b2-1412e5abb316"
                },
                "valueQuantity": {
                    "code": "mg/dL",
                    "system": "http://unitsofmeasure.org",
                    "unit": "mg/dL",
                    "value": 0.34
                },
                "resourceType": "Observation"
            }
        },
        {
            "request": {
                "method": "PUT",
                "url": "Observation/f3d10d28-e2f5-4ad3-8fd6-2e4da3a0499a"
            },
            "resource": {
                "id": "f3d10d28-e2f5-4ad3-8fd6-2e4da3a0499a",
                "meta": {
                    "profile": [
                        "https://www.medizininformatik-initiative.de/fhir/core/modul-labor/StructureDefinition/ObservationLab"
                    ]
                },
                "category": [
                    {
                        "coding": [
                            {
                                "code": "26436-6",
                                "system": "http://loinc.org"
                            },
                            {
                                "code": "laboratory",
                                "system": "http://terminology.hl7.org/CodeSystem/observation-category"
                            }
                        ]
                    }
                ],
                "code": {
                    "coding": [
                        {
                            "code": "48066-5",
                            "display": "Fibrin D-dimer DDU [Mass/volume] in Platelet poor plasma",
                            "system": "http://loinc.org"
                        }
                    ],
                    "text": "D-dimer"
                },
                "effectiveDateTime": "2020-11-17T10:51:05+01:00",
                "identifier": [
                    {
                        "assigner": {
                            "reference": "Organization/Charit\u00e9"
                        },
                        "system": "https://www.charite.de/fhir/CodeSystem/lab-identifiers",
                        "type": {
                            "coding": [
                                {
                                    "code": "OBI",
                                    "system": "http://terminology.hl7.org/CodeSystem/v2-0203"
                                }
                            ]
                        },
                        "value": "48066-5_fibrin-d-dimer-ddu-mass-per-volume-in-platelet-poor-plasma"
                    }
                ],
                "status": "final",
                "subject": {
                    "reference": "Patient/80345e54-a523-478f-98b2-1412e5abb316"
                },
                "valueQuantity": {
                    "code": "ug/L{DDU}",
                    "system": "http://unitsofmeasure.org",
                    "unit": "ug/L{DDU}",
                    "value": 161
                },
                "resourceType": "Observation"
            }
        },
        {
            "request": {
                "method": "PUT",
                "url": "Observation/e8196c46-73f4-4ccb-873f-718de6923098"
            },
            "resource": {
                "id": "e8196c46-73f4-4ccb-873f-718de6923098",
                "meta": {
                    "profile": [
                        "https://www.medizininformatik-initiative.de/fhir/core/modul-labor/StructureDefinition/ObservationLab"
                    ]
                },
                "category": [
                    {
                        "coding": [
                            {
                                "code": "26436-6",
                                "system": "http://loinc.org"
                            },
                            {
                                "code": "laboratory",
                                "system": "http://terminology.hl7.org/CodeSystem/observation-category"
                            }
                        ]
                    }
                ],
                "code": {
                    "coding": [
                        {
                            "code": "2324-2",
                            "display": "Gamma glutamyl transferase [Enzymatic activity/volume] in Serum or Plasma",
                            "system": "http://loinc.org"
                        }
                    ],
                    "text": "Gamma glutamyl transferase"
                },
                "effectiveDateTime": "2020-11-17T10:51:05+01:00",
                "identifier": [
                    {
                        "assigner": {
                            "reference": "Organization/Charit\u00e9"
                        },
                        "system": "https://www.charite.de/fhir/CodeSystem/lab-identifiers",
                        "type": {
                            "coding": [
                                {
                                    "code": "OBI",
                                    "system": "http://terminology.hl7.org/CodeSystem/v2-0203"
                                }
                            ]
                        },
                        "value": "2324-2_gamma-glutamyl-transferase-enzymatic-activity-per-volume-in-serum-or-plasma"
                    }
                ],
                "status": "final",
                "subject": {
                    "reference": "Patient/80345e54-a523-478f-98b2-1412e5abb316"
                },
                "valueQuantity": {
                    "code": "U/L",
                    "system": "http://unitsofmeasure.org",
                    "unit": "U/L",
                    "value": 7
                },
                "resourceType": "Observation"
            }
        },
        {
            "request": {
                "method": "PUT",
                "url": "Observation/3dcde062-4efb-4331-99c4-b3ecd97527b0"
            },
            "resource": {
                "id": "3dcde062-4efb-4331-99c4-b3ecd97527b0",
                "meta": {
                    "profile": [
                        "https://www.medizininformatik-initiative.de/fhir/core/modul-labor/StructureDefinition/ObservationLab"
                    ]
                },
                "category": [
                    {
                        "coding": [
                            {
                                "code": "26436-6",
                                "system": "http://loinc.org"
                            },
                            {
                                "code": "laboratory",
                                "system": "http://terminology.hl7.org/CodeSystem/observation-category"
                            }
                        ]
                    }
                ],
                "code": {
                    "coding": [
                        {
                            "code": "30239-8",
                            "display": "Aspartate aminotransferase [Enzymatic activity/volume] in Serum or Plasma by With P-5-P",
                            "system": "http://loinc.org"
                        }
                    ],
                    "text": "Aspartate aminotransferase"
                },
                "effectiveDateTime": "2020-11-17T10:51:05+01:00",
                "identifier": [
                    {
                        "assigner": {
                            "reference": "Organization/Charit\u00e9"
                        },
                        "system": "https://www.charite.de/fhir/CodeSystem/lab-identifiers",
                        "type": {
                            "coding": [
                                {
                                    "code": "OBI",
                                    "system": "http://terminology.hl7.org/CodeSystem/v2-0203"
                                }
                            ]
                        },
                        "value": "30239-8_aspartate-aminotransferase-enzymatic-activity-per-volume-in-serum-or-plasma-by-with-p-5-p"
                    }
                ],
                "status": "final",
                "subject": {
                    "reference": "Patient/80345e54-a523-478f-98b2-1412e5abb316"
                },
                "valueQuantity": {
                    "code": "U/L",
                    "system": "http://unitsofmeasure.org",
                    "unit": "U/L",
                    "value": 24
                },
                "resourceType": "Observation"
            }
        },
        {
            "request": {
                "method": "PUT",
                "url": "Observation/f7b0cede-bdea-4d28-9d2b-9bc35c787db0"
            },
            "resource": {
                "id": "f7b0cede-bdea-4d28-9d2b-9bc35c787db0",
                "meta": {
                    "profile": [
                        "https://www.medizininformatik-initiative.de/fhir/core/modul-labor/StructureDefinition/ObservationLab"
                    ]
                },
                "category": [
                    {
                        "coding": [
                            {
                                "code": "26436-6",
                                "system": "http://loinc.org"
                            },
                            {
                                "code": "laboratory",
                                "system": "http://terminology.hl7.org/CodeSystem/observation-category"
                            }
                        ]
                    }
                ],
                "code": {
                    "coding": [
                        {
                            "code": "14804-9",
                            "display": "Lactate dehydrogenase [Enzymatic activity/volume] in Serum or Plasma by Lactate to pyruvate reaction",
                            "system": "http://loinc.org"
                        }
                    ],
                    "text": "Lactate dehydrogenase"
                },
                "effectiveDateTime": "2020-11-17T10:51:05+01:00",
                "identifier": [
                    {
                        "assigner": {
                            "reference": "Organization/Charit\u00e9"
                        },
                        "system": "https://www.charite.de/fhir/CodeSystem/lab-identifiers",
                        "type": {
                            "coding": [
                                {
                                    "code": "OBI",
                                    "system": "http://terminology.hl7.org/CodeSystem/v2-0203"
                                }
                            ]
                        },
                        "value": "14804-9_lactate-dehydrogenase-enzymatic-activity-per-volume-in-serum-or-plasma-by-lactate-to-pyruvate-reaction"
                    }
                ],
                "status": "final",
                "subject": {
                    "reference": "Patient/80345e54-a523-478f-98b2-1412e5abb316"
                },
                "valueQuantity": {
                    "code": "U/L",
                    "system": "http://unitsofmeasure.org",
                    "unit": "U/L",
                    "value": 203
                },
                "resourceType": "Observation"
            }
        },
        {
            "request": {
                "method": "PUT",
                "url": "Observation/cd6d91ef-a2f2-4030-a012-274ec53a950c"
            },
            "resource": {
                "id": "cd6d91ef-a2f2-4030-a012-274ec53a950c",
                "meta": {
                    "profile": [
                        "https://www.medizininformatik-initiative.de/fhir/core/modul-labor/StructureDefinition/ObservationLab"
                    ]
                },
                "category": [
                    {
                        "coding": [
                            {
                                "code": "26436-6",
                                "system": "http://loinc.org"
                            },
                            {
                                "code": "laboratory",
                                "system": "http://terminology.hl7.org/CodeSystem/observation-category"
                            }
                        ]
                    }
                ],
                "code": {
                    "coding": [
                        {
                            "code": "67151-1",
                            "display": "Troponin T.cardiac [Mass/volume] in Serum or Plasma by High sensitivity method",
                            "system": "http://loinc.org"
                        }
                    ],
                    "text": "Cardiac troponin"
                },
                "effectiveDateTime": "2020-11-17T10:51:05+01:00",
                "identifier": [
                    {
                        "assigner": {
                            "reference": "Organization/Charit\u00e9"
                        },
                        "system": "https://www.charite.de/fhir/CodeSystem/lab-identifiers",
                        "type": {
                            "coding": [
                                {
                                    "code": "OBI",
                                    "system": "http://terminology.hl7.org/CodeSystem/v2-0203"
                                }
                            ]
                        },
                        "value": "67151-1_troponin-t.cardiac-mass-per-volume-in-serum-or-plasma-by-high-sensitivity-method"
                    }
                ],
                "status": "final",
                "subject": {
                    "reference": "Patient/80345e54-a523-478f-98b2-1412e5abb316"
                },
                "valueQuantity": {
                    "code": "ng/L",
                    "system": "http://unitsofmeasure.org",
                    "unit": "ng/L",
                    "value": 10
                },
                "resourceType": "Observation"
            }
        },
        {
            "request": {
                "method": "PUT",
                "url": "Observation/243475b1-b008-40ff-8d96-fd357a7d8bdf"
            },
            "resource": {
                "id": "243475b1-b008-40ff-8d96-fd357a7d8bdf",
                "meta": {
                    "profile": [
                        "https://www.medizininformatik-initiative.de/fhir/core/modul-labor/StructureDefinition/ObservationLab"
                    ]
                },
                "category": [
                    {
                        "coding": [
                            {
                                "code": "26436-6",
                                "system": "http://loinc.org"
                            },
                            {
                                "code": "laboratory",
                                "system": "http://terminology.hl7.org/CodeSystem/observation-category"
                            }
                        ]
                    }
                ],
                "code": {
                    "coding": [
                        {
                            "code": "718-7",
                            "display": "Hemoglobin [Mass/volume] in Blood",
                            "system": "http://loinc.org"
                        }
                    ],
                    "text": "Hemoglobin"
                },
                "effectiveDateTime": "2020-11-17T10:51:05+01:00",
                "identifier": [
                    {
                        "assigner": {
                            "reference": "Organization/Charit\u00e9"
                        },
                        "system": "https://www.charite.de/fhir/CodeSystem/lab-identifiers",
                        "type": {
                            "coding": [
                                {
                                    "code": "OBI",
                                    "system": "http://terminology.hl7.org/CodeSystem/v2-0203"
                                }
                            ]
                        },
                        "value": "718-7_hemoglobin-mass-per-volume-in-blood"
                    }
                ],
                "status": "final",
                "subject": {
                    "reference": "Patient/80345e54-a523-478f-98b2-1412e5abb316"
                },
                "valueQuantity": {
                    "code": "g/dL",
                    "system": "http://unitsofmeasure.org",
                    "unit": "g/dL",
                    "value": 15.9
                },
                "resourceType": "Observation"
            }
        },
        {
            "request": {
                "method": "PUT",
                "url": "Observation/5c8dec7f-15b5-4311-a897-3ca29f8fca6a"
            },
            "resource": {
                "id": "5c8dec7f-15b5-4311-a897-3ca29f8fca6a",
                "meta": {
                    "profile": [
                        "https://www.medizininformatik-initiative.de/fhir/core/modul-labor/StructureDefinition/ObservationLab"
                    ]
                },
                "category": [
                    {
                        "coding": [
                            {
                                "code": "26436-6",
                                "system": "http://loinc.org"
                            },
                            {
                                "code": "laboratory",
                                "system": "http://terminology.hl7.org/CodeSystem/observation-category"
                            }
                        ]
                    }
                ],
                "code": {
                    "coding": [
                        {
                            "code": "2160-0",
                            "display": "Creatinine [Mass/volume] in Serum or Plasma",
                            "system": "http://loinc.org"
                        }
                    ],
                    "text": "Creatinine"
                },
                "effectiveDateTime": "2020-11-17T10:51:05+01:00",
                "identifier": [
                    {
                        "assigner": {
                            "reference": "Organization/Charit\u00e9"
                        },
                        "system": "https://www.charite.de/fhir/CodeSystem/lab-identifiers",
                        "type": {
                            "coding": [
                                {
                                    "code": "OBI",
                                    "system": "http://terminology.hl7.org/CodeSystem/v2-0203"
                                }
                            ]
                        },
                        "value": "2160-0_creatinine-mass-per-volume-in-serum-or-plasma"
                    }
                ],
                "status": "final",
                "subject": {
                    "reference": "Patient/80345e54-a523-478f-98b2-1412e5abb316"
                },
                "valueQuantity": {
                    "code": "mg/dL",
                    "system": "http://unitsofmeasure.org",
                    "unit": "mg/dL",
                    "value": 0.42
                },
                "resourceType": "Observation"
            }
        },
        {
            "request": {
                "method": "PUT",
                "url": "Observation/61465f5b-8754-459e-8c37-eac9a18cba73"
            },
            "resource": {
                "id": "61465f5b-8754-459e-8c37-eac9a18cba73",
                "meta": {
                    "profile": [
                        "https://www.medizininformatik-initiative.de/fhir/core/modul-labor/StructureDefinition/ObservationLab"
                    ]
                },
                "category": [
                    {
                        "coding": [
                            {
                                "code": "26436-6",
                                "system": "http://loinc.org"
                            },
                            {
                                "code": "laboratory",
                                "system": "http://terminology.hl7.org/CodeSystem/observation-category"
                            }
                        ]
                    }
                ],
                "code": {
                    "coding": [
                        {
                            "code": "2519-7",
                            "display": "Lactate [Moles/volume] in Venous blood",
                            "system": "http://loinc.org"
                        }
                    ],
                    "text": "Lactate"
                },
                "effectiveDateTime": "2020-11-17T10:51:05+01:00",
                "identifier": [
                    {
                        "assigner": {
                            "reference": "Organization/Charit\u00e9"
                        },
                        "system": "https://www.charite.de/fhir/CodeSystem/lab-identifiers",
                        "type": {
                            "coding": [
                                {
                                    "code": "OBI",
                                    "system": "http://terminology.hl7.org/CodeSystem/v2-0203"
                                }
                            ]
                        },
                        "value": "2519-7_lactate-moles-per-volume-in-venous-blood"
                    }
                ],
                "status": "final",
                "subject": {
                    "reference": "Patient/80345e54-a523-478f-98b2-1412e5abb316"
                },
                "valueQuantity": {
                    "code": "mmol/L",
                    "system": "http://unitsofmeasure.org",
                    "unit": "mmol/L",
                    "value": 6.2
                },
                "resourceType": "Observation"
            }
        },
        {
            "request": {
                "method": "PUT",
                "url": "Observation/7e00542d-cd23-4e2b-b223-706d15761977"
            },
            "resource": {
                "id": "7e00542d-cd23-4e2b-b223-706d15761977",
                "meta": {
                    "profile": [
                        "https://www.medizininformatik-initiative.de/fhir/core/modul-labor/StructureDefinition/ObservationLab"
                    ]
                },
                "category": [
                    {
                        "coding": [
                            {
                                "code": "26436-6",
                                "system": "http://loinc.org"
                            },
                            {
                                "code": "laboratory",
                                "system": "http://terminology.hl7.org/CodeSystem/observation-category"
                            }
                        ]
                    }
                ],
                "code": {
                    "coding": [
                        {
                            "code": "6690-2",
                            "display": "Leukocytes [#/volume] in Blood by Automated count",
                            "system": "http://loinc.org"
                        }
                    ],
                    "text": "Leukocytes"
                },
                "effectiveDateTime": "2020-11-17T10:51:05+01:00",
                "identifier": [
                    {
                        "assigner": {
                            "reference": "Organization/Charit\u00e9"
                        },
                        "system": "https://www.charite.de/fhir/CodeSystem/lab-identifiers",
                        "type": {
                            "coding": [
                                {
                                    "code": "OBI",
                                    "system": "http://terminology.hl7.org/CodeSystem/v2-0203"
                                }
                            ]
                        },
                        "value": "6690-2_leukocytes-number-per-volume-in-blood-by-automated-count"
                    }
                ],
                "status": "final",
                "subject": {
                    "reference": "Patient/80345e54-a523-478f-98b2-1412e5abb316"
                },
                "valueQuantity": {
                    "code": "10*3/uL",
                    "system": "http://unitsofmeasure.org",
                    "unit": "10*3/uL",
                    "value": 8.5
                },
                "resourceType": "Observation"
            }
        },
        {
            "request": {
                "method": "PUT",
                "url": "Observation/f4798484-8ac6-4a3c-9672-f9520a7475a4"
            },
            "resource": {
                "id": "f4798484-8ac6-4a3c-9672-f9520a7475a4",
                "meta": {
                    "profile": [
                        "https://www.medizininformatik-initiative.de/fhir/core/modul-labor/StructureDefinition/ObservationLab"
                    ]
                },
                "category": [
                    {
                        "coding": [
                            {
                                "code": "26436-6",
                                "system": "http://loinc.org"
                            },
                            {
                                "code": "laboratory",
                                "system": "http://terminology.hl7.org/CodeSystem/observation-category"
                            }
                        ]
                    }
                ],
                "code": {
                    "coding": [
                        {
                            "code": "731-0",
                            "display": "Lymphocytes [#/volume] in Blood by Automated count",
                            "system": "http://loinc.org"
                        }
                    ],
                    "text": "Lymphocytes"
                },
                "effectiveDateTime": "2020-11-17T10:51:05+01:00",
                "identifier": [
                    {
                        "assigner": {
                            "reference": "Organization/Charit\u00e9"
                        },
                        "system": "https://www.charite.de/fhir/CodeSystem/lab-identifiers",
                        "type": {
                            "coding": [
                                {
                                    "code": "OBI",
                                    "system": "http://terminology.hl7.org/CodeSystem/v2-0203"
                                }
                            ]
                        },
                        "value": "731-0_lymphocytes-number-per-volume-in-blood-by-automated-count"
                    }
                ],
                "status": "final",
                "subject": {
                    "reference": "Patient/80345e54-a523-478f-98b2-1412e5abb316"
                },
                "valueQuantity": {
                    "code": "10*3/uL",
                    "system": "http://unitsofmeasure.org",
                    "unit": "10*3/uL",
                    "value": 3.2
                },
                "resourceType": "Observation"
            }
        },
        {
            "request": {
                "method": "PUT",
                "url": "Observation/1f6313b9-3d8a-46df-adfb-4e5048cf1c80"
            },
            "resource": {
                "id": "1f6313b9-3d8a-46df-adfb-4e5048cf1c80",
                "meta": {
                    "profile": [
                        "https://www.medizininformatik-initiative.de/fhir/core/modul-labor/StructureDefinition/ObservationLab"
                    ]
                },
                "category": [
                    {
                        "coding": [
                            {
                                "code": "26436-6",
                                "system": "http://loinc.org"
                            },
                            {
                                "code": "laboratory",
                                "system": "http://terminology.hl7.org/CodeSystem/observation-category"
                            }
                        ]
                    }
                ],
                "code": {
                    "coding": [
                        {
                            "code": "751-8",
                            "display": "Neutrophils [#/volume] in Blood by Automated count",
                            "system": "http://loinc.org"
                        }
                    ],
                    "text": "Neutrophils"
                },
                "effectiveDateTime": "2020-11-17T10:51:05+01:00",
                "identifier": [
                    {
                        "assigner": {
                            "reference": "Organization/Charit\u00e9"
                        },
                        "system": "https://www.charite.de/fhir/CodeSystem/lab-identifiers",
                        "type": {
                            "coding": [
                                {
                                    "code": "OBI",
                                    "system": "http://terminology.hl7.org/CodeSystem/v2-0203"
                                }
                            ]
                        },
                        "value": "751-8_neutrophils-number-per-volume-in-blood-by-automated-count"
                    }
                ],
                "status": "final",
                "subject": {
                    "reference": "Patient/80345e54-a523-478f-98b2-1412e5abb316"
                },
                "valueQuantity": {
                    "code": "10*3/uL",
                    "system": "http://unitsofmeasure.org",
                    "unit": "10*3/uL",
                    "value": 2.1
                },
                "resourceType": "Observation"
            }
        },
        {
            "request": {
                "method": "PUT",
                "url": "Observation/7dde2da3-3dc0-4fb6-ab7f-9abf411e9bdd"
            },
            "resource": {
                "id": "7dde2da3-3dc0-4fb6-ab7f-9abf411e9bdd",
                "meta": {
                    "profile": [
                        "https://www.netzwerk-universitaetsmedizin.de/fhir/StructureDefinition/sars-cov-2-rt-pcr"
                    ]
                },
                "category": [
                    {
                        "coding": [
                            {
                                "code": "26436-6",
                                "system": "http://loinc.org"
                            },
                            {
                                "code": "laboratory",
                                "system": "http://terminology.hl7.org/CodeSystem/observation-category"
                            }
                        ]
                    }
                ],
                "code": {
                    "coding": [
                        {
                            "code": "94500-6",
                            "display": "SARS-CoV-2 (COVID-19) RNA [Presence] in Respiratory specimen by NAA with probe detection",
                            "system": "http://loinc.org"
                        }
                    ],
                    "text": "SARS-CoV-2-RNA (PCR)"
                },
                "effectiveDateTime": "2020-11-17T10:51:05+01:00",
                "identifier": [
                    {
                        "assigner": {
                            "reference": "Organization/Charit\u00e9"
                        },
                        "system": "https://www.charite.de/fhir/CodeSystem/lab-identifiers",
                        "type": {
                            "coding": [
                                {
                                    "code": "OBI",
                                    "system": "http://terminology.hl7.org/CodeSystem/v2-0203"
                                }
                            ]
                        },
                        "value": "94500-6_SARS-CoV-2-RNA-Presence-in-Respiratory-specimen"
                    }
                ],
                "status": "final",
                "subject": {
                    "reference": "Patient/80345e54-a523-478f-98b2-1412e5abb316"
                },
                "valueCodeableConcept": {
                    "coding": [
                        {
                            "code": "260373001",
                            "display": "Detected (qualifier value)",
                            "system": "http://snomed.info/sct"
                        }
                    ],
                    "text": "SARS-CoV-2-RNA positiv"
                },
                "resourceType": "Observation"
            }
        },
        {
            "request": {
                "method": "PUT",
                "url": "Observation/da158568-3240-47b2-b1a5-6acccc54b12f"
            },
            "resource": {
                "id": "da158568-3240-47b2-b1a5-6acccc54b12f",
                "meta": {
                    "profile": [
                        "https://www.netzwerk-universitaetsmedizin.de/fhir/StructureDefinition/sars-cov-2-ab-ser-pl-ql-ia"
                    ]
                },
                "category": [
                    {
                        "coding": [
                            {
                                "code": "26436-6",
                                "system": "http://loinc.org"
                            },
                            {
                                "code": "laboratory",
                                "system": "http://terminology.hl7.org/CodeSystem/observation-category"
                            }
                        ]
                    }
                ],
                "code": {
                    "coding": [
                        {
                            "code": "94762-2",
                            "display": "SARS-CoV-2 (COVID-19) Ab [Presence] in Serum or Plasma by Immunoassay",
                            "system": "http://loinc.org"
                        }
                    ],
                    "text": "SARS-CoV-2 antibodies qualitative"
                },
                "effectiveDateTime": "2020-11-17T10:51:05+01:00",
                "identifier": [
                    {
                        "assigner": {
                            "reference": "Organization/Charit\u00e9"
                        },
                        "system": "https://www.charite.de/fhir/CodeSystem/lab-identifiers",
                        "type": {
                            "coding": [
                                {
                                    "code": "OBI",
                                    "system": "http://terminology.hl7.org/CodeSystem/v2-0203"
                                }
                            ]
                        },
                        "value": "94762-2_SARS-CoV-2-Ab-Ql"
                    }
                ],
                "status": "final",
                "subject": {
                    "reference": "Patient/80345e54-a523-478f-98b2-1412e5abb316"
                },
                "valueCodeableConcept": {
                    "coding": [
                        {
                            "code": "419984006",
                            "display": "\tInconclusive (qualifier value)",
                            "system": "http://snomed.info/sct"
                        }
                    ]
                },
                "resourceType": "Observation"
            }
        },
        {
            "request": {
                "method": "PUT",
                "url": "Observation/55d5dc14-ad16-4ae0-b64a-40cad6bd1367"
            },
            "resource": {
                "id": "55d5dc14-ad16-4ae0-b64a-40cad6bd1367",
                "meta": {
                    "profile": [
                        "https://www.netzwerk-universitaetsmedizin.de/fhir/StructureDefinition/sars-cov-2-iga-ser-pl-ql-ia"
                    ]
                },
                "category": [
                    {
                        "coding": [
                            {
                                "code": "26436-6",
                                "system": "http://loinc.org"
                            },
                            {
                                "code": "laboratory",
                                "system": "http://terminology.hl7.org/CodeSystem/observation-category"
                            }
                        ]
                    }
                ],
                "code": {
                    "coding": [
                        {
                            "code": "94562-6",
                            "display": "SARS-CoV-2 (COVID-19) IgA Ab [Presence] in Serum or Plasma by Immunoassay",
                            "system": "http://loinc.org"
                        }
                    ],
                    "text": "SARS-CoV-2 IgA antibodies qualitative"
                },
                "effectiveDateTime": "2020-11-17T10:51:05+01:00",
                "identifier": [
                    {
                        "assigner": {
                            "reference": "Organization/Charit\u00e9"
                        },
                        "system": "https://www.charite.de/fhir/CodeSystem/lab-identifiers",
                        "type": {
                            "coding": [
                                {
                                    "code": "OBI",
                                    "system": "http://terminology.hl7.org/CodeSystem/v2-0203"
                                }
                            ]
                        },
                        "value": "94562-6_SARS-CoV-2-IgA-Ql"
                    }
                ],
                "status": "final",
                "subject": {
                    "reference": "Patient/80345e54-a523-478f-98b2-1412e5abb316"
                },
                "valueCodeableConcept": {
                    "coding": [
                        {
                            "code": "260415000",
                            "display": "Not detected (qualifier value)",
                            "system": "http://snomed.info/sct"
                        }
                    ]
                },
                "resourceType": "Observation"
            }
        },
        {
            "request": {
                "method": "PUT",
                "url": "Observation/b3980871-7084-4cc5-8dd2-ed774d925fb5"
            },
            "resource": {
                "id": "b3980871-7084-4cc5-8dd2-ed774d925fb5",
                "meta": {
                    "profile": [
                        "https://www.netzwerk-universitaetsmedizin.de/fhir/StructureDefinition/sars-cov-2-igg-ser-pl-ql-ia"
                    ]
                },
                "category": [
                    {
                        "coding": [
                            {
                                "code": "26436-6",
                                "system": "http://loinc.org"
                            },
                            {
                                "code": "laboratory",
                                "system": "http://terminology.hl7.org/CodeSystem/observation-category"
                            }
                        ]
                    }
                ],
                "code": {
                    "coding": [
                        {
                            "code": "94563-4",
                            "display": "SARS-CoV-2 (COVID-19) IgG Ab [Presence] in Serum or Plasma by Immunoassay",
                            "system": "http://loinc.org"
                        }
                    ],
                    "text": "SARS-CoV-2 IgG antibodies qualitative"
                },
                "effectiveDateTime": "2020-11-17T10:51:05+01:00",
                "identifier": [
                    {
                        "assigner": {
                            "reference": "Organization/Charit\u00e9"
                        },
                        "system": "https://www.charite.de/fhir/CodeSystem/lab-identifiers",
                        "type": {
                            "coding": [
                                {
                                    "code": "OBI",
                                    "system": "http://terminology.hl7.org/CodeSystem/v2-0203"
                                }
                            ]
                        },
                        "value": "94563-4_SARS-CoV-2-IgG-Ql"
                    }
                ],
                "status": "final",
                "subject": {
                    "reference": "Patient/80345e54-a523-478f-98b2-1412e5abb316"
                },
                "valueCodeableConcept": {
                    "coding": [
                        {
                            "code": "260373001",
                            "display": "Detected (qualifier value)",
                            "system": "http://snomed.info/sct"
                        }
                    ]
                },
                "resourceType": "Observation"
            }
        },
        {
            "request": {
                "method": "PUT",
                "url": "Observation/87042a2a-89e7-40b4-8a92-e375939fd642"
            },
            "resource": {
                "id": "87042a2a-89e7-40b4-8a92-e375939fd642",
                "meta": {
                    "profile": [
                        "https://www.netzwerk-universitaetsmedizin.de/fhir/StructureDefinition/sars-cov-2-igm-ser-pl-ql-ia"
                    ]
                },
                "category": [
                    {
                        "coding": [
                            {
                                "code": "26436-6",
                                "system": "http://loinc.org"
                            },
                            {
                                "code": "laboratory",
                                "system": "http://terminology.hl7.org/CodeSystem/observation-category"
                            }
                        ]
                    }
                ],
                "code": {
                    "coding": [
                        {
                            "code": "94564-2",
                            "display": "SARS-CoV-2 (COVID-19) IgM Ab [Presence] in Serum or Plasma by Immunoassay",
                            "system": "http://loinc.org"
                        }
                    ],
                    "text": "SARS-CoV-2 IgM antibodies qualitative"
                },
                "effectiveDateTime": "2020-11-17T10:51:05+01:00",
                "identifier": [
                    {
                        "assigner": {
                            "reference": "Organization/Charit\u00e9"
                        },
                        "system": "https://www.charite.de/fhir/CodeSystem/lab-identifiers",
                        "type": {
                            "coding": [
                                {
                                    "code": "OBI",
                                    "system": "http://terminology.hl7.org/CodeSystem/v2-0203"
                                }
                            ]
                        },
                        "value": "94564-2_SARS-CoV-2-IgM-Ql"
                    }
                ],
                "status": "final",
                "subject": {
                    "reference": "Patient/80345e54-a523-478f-98b2-1412e5abb316"
                },
                "valueCodeableConcept": {
                    "coding": [
                        {
                            "code": "419984006",
                            "display": "\tInconclusive (qualifier value)",
                            "system": "http://snomed.info/sct"
                        }
                    ]
                },
                "resourceType": "Observation"
            }
        },
        {
            "request": {
                "method": "PUT",
                "url": "Observation/6cc0454e-5e62-40a1-8e79-0938a7cdc2e5"
            },
            "resource": {
                "id": "6cc0454e-5e62-40a1-8e79-0938a7cdc2e5",
                "meta": {
                    "profile": [
                        "https://www.netzwerk-universitaetsmedizin.de/fhir/StructureDefinition/sars-cov-2-ab-pnl-ser-pl-ia"
                    ]
                },
                "category": [
                    {
                        "coding": [
                            {
                                "code": "26436-6",
                                "system": "http://loinc.org"
                            },
                            {
                                "code": "laboratory",
                                "system": "http://terminology.hl7.org/CodeSystem/observation-category"
                            }
                        ]
                    }
                ],
                "code": {
                    "coding": [
                        {
                            "code": "94504-8",
                            "display": "SARS-CoV-2 (COVID-19) Ab panel - Serum or Plasma by Immunoassay",
                            "system": "http://loinc.org"
                        }
                    ],
                    "text": "SARS-CoV-2 antibodies panel"
                },
                "effectiveDateTime": "2020-11-17T10:51:05+01:00",
                "hasMember": [
                    {
                        "reference": "Observation/da158568-3240-47b2-b1a5-6acccc54b12f"
                    },
                    {
                        "reference": "Observation/55d5dc14-ad16-4ae0-b64a-40cad6bd1367"
                    },
                    {
                        "reference": "Observation/b3980871-7084-4cc5-8dd2-ed774d925fb5"
                    },
                    {
                        "reference": "Observation/87042a2a-89e7-40b4-8a92-e375939fd642"
                    }
                ],
                "identifier": [
                    {
                        "assigner": {
                            "reference": "Organization/Charit\u00e9"
                        },
                        "system": "https://www.charite.de/fhir/CodeSystem/lab-identifiers",
                        "type": {
                            "coding": [
                                {
                                    "code": "OBI",
                                    "system": "http://terminology.hl7.org/CodeSystem/v2-0203"
                                }
                            ]
                        },
                        "value": "94504-8_SARS-CoV-2-Ab-Panel"
                    }
                ],
                "status": "final",
                "subject": {
                    "reference": "Patient/80345e54-a523-478f-98b2-1412e5abb316"
                },
                "resourceType": "Observation"
            }
        },
        {
            "request": {
                "method": "POST",
                "url": "MedicationStatement"
            },
            "resource": {
                "id": "8c9d53be-4caf-4fcf-8ad5-61ebf4276152",
                "meta": {
                    "profile": [
                        "https://www.netzwerk-universitaetsmedizin.de/fhir/StructureDefinition/pharmacological-therapy"
                    ]
                },
                "effectiveDateTime": "2020-11-17T10:51:05+01:00",
                "medicationCodeableConcept": {
                    "coding": [
                        {
                            "code": "416897008",
                            "display": "Product containing tumor necrosis factor alpha inhibitor (product)",
                            "system": "http://snomed.info/sct"
                        },
                        {
                            "code": "L04AB",
                            "display": "Tumornekrosefaktor alpha(TNF-alpha)-Inhibitoren",
                            "system": "http://fhir.de/CodeSystem/dimdi/atc"
                        }
                    ],
                    "text": "Anti-TNF-alpha inhibitors"
                },
                "status": "active",
                "subject": {
                    "reference": "Patient/80345e54-a523-478f-98b2-1412e5abb316"
                },
                "resourceType": "MedicationStatement"
            }
        },
        {
            "request": {
                "method": "POST",
                "url": "MedicationStatement"
            },
            "resource": {
                "id": "94735ecc-312c-4b56-8c3a-0037768755d5",
                "meta": {
                    "profile": [
                        "https://www.netzwerk-universitaetsmedizin.de/fhir/StructureDefinition/pharmacological-therapy-ace-inhibitors"
                    ]
                },
                "effectiveDateTime": "2020-11-17T10:51:05+01:00",
                "medicationCodeableConcept": {
                    "coding": [
                        {
                            "code": "41549009",
                            "display": "Product containing angiotensin-converting enzyme inhibitor (product)",
                            "system": "http://snomed.info/sct"
                        },
                        {
                            "code": "C09A",
                            "display": "ACE-HEMMER, REIN",
                            "system": "http://fhir.de/CodeSystem/dimdi/atc"
                        }
                    ],
                    "text": "ACE inhibitors"
                },
                "status": "stopped",
                "subject": {
                    "reference": "Patient/80345e54-a523-478f-98b2-1412e5abb316"
                },
                "resourceType": "MedicationStatement"
            }
        },
        {
            "request": {
                "method": "POST",
                "url": "MedicationStatement"
            },
            "resource": {
                "id": "434d9ff8-99d0-4893-aa4d-e18603d94ae2",
                "meta": {
                    "profile": [
                        "https://www.netzwerk-universitaetsmedizin.de/fhir/StructureDefinition/pharmacological-therapy-immunoglobulins"
                    ]
                },
                "effectiveDateTime": "2020-11-17T10:51:05+01:00",
                "medicationCodeableConcept": {
                    "coding": [
                        {
                            "code": "333710000",
                            "display": "Product containing immunoglobulin (product)",
                            "system": "http://snomed.info/sct"
                        },
                        {
                            "code": "J06B",
                            "display": "IMMUNGLOBULINE",
                            "system": "http://fhir.de/CodeSystem/dimdi/atc"
                        }
                    ],
                    "text": "immunoglobulins"
                },
                "status": "unknown",
                "subject": {
                    "reference": "Patient/80345e54-a523-478f-98b2-1412e5abb316"
                },
                "resourceType": "MedicationStatement"
            }
        },
        {
            "request": {
                "method": "POST",
                "url": "MedicationStatement"
            },
            "resource": {
                "id": "ed6c8d08-9c5d-4b24-a7a7-dda613160880",
                "meta": {
                    "profile": [
                        "https://www.netzwerk-universitaetsmedizin.de/fhir/StructureDefinition/pharmacological-therapy-anticoagulants"
                    ]
                },
                "effectiveDateTime": "2020-11-17T10:51:05+01:00",
                "medicationCodeableConcept": {
                    "coding": [
                        {
                            "code": "87233003",
                            "display": "Product containing low molecular weight heparin (product)",
                            "system": "http://snomed.info/sct"
                        },
                        {
                            "code": "B01AB11",
                            "display": "Sulodexid",
                            "system": "http://fhir.de/CodeSystem/dimdi/atc"
                        }
                    ],
                    "text": "Low-molecular-weight heparin"
                },
                "reasonCode": [
                    {
                        "coding": [
                            {
                                "code": "360271000",
                                "display": "Prophylaxis - procedure intent (qualifier value)",
                                "system": "http://snomed.info/sct"
                            }
                        ]
                    }
                ],
                "status": "active",
                "subject": {
                    "reference": "Patient/80345e54-a523-478f-98b2-1412e5abb316"
                },
                "resourceType": "MedicationStatement"
            }
        },
        {
            "request": {
                "method": "POST",
                "url": "Condition"
            },
            "resource": {
                "id": "f182bf9f-0e30-4bce-a7b3-00caab4503f0",
                "meta": {
                    "profile": [
                        "https://www.netzwerk-universitaetsmedizin.de/fhir/StructureDefinition/dependence-on-ventilator"
                    ]
                },
                "category": [
                    {
                        "coding": [
                            {
                                "code": "404989005",
                                "display": "Ventilation status (observable entity)",
                                "system": "http://snomed.info/sct"
                            }
                        ]
                    }
                ],
                "code": {
                    "coding": [
                        {
                            "code": "444932008",
                            "display": "Dependence on ventilator (finding)",
                            "system": "http://snomed.info/sct"
                        }
                    ]
                },
                "recordedDate": "2020-11-17T10:51:05+01:00",
                "subject": {
                    "reference": "Patient/80345e54-a523-478f-98b2-1412e5abb316"
                },
                "verificationStatus": {
                    "coding": [
                        {
                            "code": "refuted",
                            "display": "Refuted",
                            "system": "http://terminology.hl7.org/CodeSystem/condition-ver-status"
                        },
                        {
                            "code": "410594000",
                            "display": "Definitely NOT present (qualifier value)",
                            "system": "http://snomed.info/sct"
                        }
                    ]
                },
                "resourceType": "Condition"
            }
        },
        {
            "request": {
                "method": "PUT",
                "url": "Observation/b8a0e2a4-f6df-451a-99e6-f2cffd81ec26"
            },
            "resource": {
                "id": "b8a0e2a4-f6df-451a-99e6-f2cffd81ec26",
                "meta": {
                    "profile": [
                        "https://www.netzwerk-universitaetsmedizin.de/fhir/StructureDefinition/discharge-disposition"
                    ]
                },
                "category": [
                    {
                        "coding": [
                            {
                                "code": "social-history",
                                "system": "http://terminology.hl7.org/CodeSystem/observation-category"
                            }
                        ]
                    }
                ],
                "code": {
                    "coding": [
                        {
                            "code": "55128-3",
                            "display": "Discharge disposition",
                            "system": "http://loinc.org"
                        }
                    ],
                    "text": "Type of discharge"
                },
                "effectiveDateTime": "2020-11-17T10:51:05+01:00",
                "identifier": [
                    {
                        "assigner": {
                            "reference": "Organization/Charit\u00e9"
                        },
                        "system": "https://www.charite.de/fhir/CodeSystem/observation-identifiers",
                        "type": {
                            "coding": [
                                {
                                    "code": "OBI",
                                    "system": "http://terminology.hl7.org/CodeSystem/v2-0203"
                                }
                            ]
                        },
                        "value": "55128-3_DischargeDisposition"
                    }
                ],
                "status": "final",
                "subject": {
                    "reference": "Patient/80345e54-a523-478f-98b2-1412e5abb316"
                },
                "valueCodeableConcept": {
                    "coding": [
                        {
                            "code": "3457005",
                            "display": "Patient referral (procedure)",
                            "system": "http://snomed.info/sct"
                        }
                    ]
                },
                "resourceType": "Observation"
            }
        },
        {
            "request": {
                "method": "PUT",
                "url": "Observation/c70d9d90-fb31-47ae-8e88-b0711dec14f6"
            },
            "resource": {
                "id": "c70d9d90-fb31-47ae-8e88-b0711dec14f6",
                "meta": {
                    "profile": [
                        "https://www.netzwerk-universitaetsmedizin.de/fhir/StructureDefinition/study-inclusion-covid-19"
                    ]
                },
                "category": [
                    {
                        "coding": [
                            {
                                "code": "survey",
                                "system": "http://terminology.hl7.org/CodeSystem/observation-category"
                            }
                        ]
                    }
                ],
                "code": {
                    "coding": [
                        {
                            "code": "02",
                            "display": "Study inclusion due to Covid-19",
                            "system": "https://www.netzwerk-universitaetsmedizin.de/fhir/CodeSystem/ecrf-parameter-codes"
                        }
                    ],
                    "text": "Confirmed Covid-19 diagnosis as main reason for enrolment in the study"
                },
                "effectiveDateTime": "2020-11-17T10:51:05+01:00",
                "identifier": [
                    {
                        "assigner": {
                            "reference": "Organization/Charit\u00e9"
                        },
                        "system": "https://www.charite.de/fhir/CodeSystem/observation-identifiers",
                        "type": {
                            "coding": [
                                {
                                    "code": "OBI",
                                    "system": "http://terminology.hl7.org/CodeSystem/v2-0203"
                                }
                            ]
                        },
                        "value": "ecrf_02_StudyInclusionCovid19"
                    }
                ],
                "status": "final",
                "subject": {
                    "reference": "Patient/80345e54-a523-478f-98b2-1412e5abb316"
                },
                "valueCodeableConcept": {
                    "coding": [
                        {
                            "code": "373066001",
                            "display": "Yes (qualifier value)",
                            "system": "http://snomed.info/sct"
                        }
                    ],
                    "text": "Covid-19 as primary reason for study inclusion"
                },
                "resourceType": "Observation"
            }
        },
        {
            "request": {
                "method": "PUT",
                "url": "Observation/219df37f-0699-4694-9a2b-b68db6803a55"
            },
            "resource": {
                "id": "219df37f-0699-4694-9a2b-b68db6803a55",
                "meta": {
                    "profile": [
                        "https://www.netzwerk-universitaetsmedizin.de/fhir/StructureDefinition/interventional-clinical-trial-participation"
                    ]
                },
                "category": [
                    {
                        "coding": [
                            {
                                "code": "survey",
                                "system": "http://terminology.hl7.org/CodeSystem/observation-category"
                            }
                        ]
                    }
                ],
                "code": {
                    "coding": [
                        {
                            "code": "03",
                            "display": "Participation in interventional clinical trials",
                            "system": "https://www.netzwerk-universitaetsmedizin.de/fhir/CodeSystem/ecrf-parameter-codes"
                        }
                    ],
                    "text": "Has the patient participated in one or more interventional clinical trials?"
                },
                "effectiveDateTime": "2020-11-17T10:51:05+01:00",
                "identifier": [
                    {
                        "assigner": {
                            "reference": "Organization/Charit\u00e9"
                        },
                        "system": "https://www.charite.de/fhir/CodeSystem/observation-identifiers",
                        "type": {
                            "coding": [
                                {
                                    "code": "OBI",
                                    "system": "http://terminology.hl7.org/CodeSystem/v2-0203"
                                }
                            ]
                        },
                        "value": "ecrf_03_InterventionalClinicalTrialsParticipation"
                    }
                ],
                "status": "final",
                "subject": {
                    "reference": "Patient/80345e54-a523-478f-98b2-1412e5abb316"
                },
                "valueCodeableConcept": {
                    "coding": [
                        {
                            "code": "373067005",
                            "display": "No (qualifier value)",
                            "system": "http://snomed.info/sct"
                        }
                    ],
                    "text": "Patient is not enrolled in other studies"
                },
                "resourceType": "Observation"
            }
        },
        {
            "request": {
                "method": "POST",
                "url": "Condition"
            },
            "resource": {
                "id": "c1d4b4ea-74f6-41cc-b989-3c0e7091b883",
                "meta": {
                    "profile": [
                        "https://www.netzwerk-universitaetsmedizin.de/fhir/StructureDefinition/symptoms-covid-19"
                    ]
                },
                "category": [
                    {
                        "coding": [
                            {
                                "code": "75325-1",
                                "display": "Symptom",
                                "system": "http://loinc.org"
                            }
                        ]
                    }
                ],
                "code": {
                    "coding": [
                        {
                            "code": "36955009",
                            "display": "Loss of taste (finding)",
                            "system": "http://snomed.info/sct"
                        }
                    ]
                },
                "recordedDate": "2020-11-17T10:51:05+01:00",
                "subject": {
                    "reference": "Patient/80345e54-a523-478f-98b2-1412e5abb316"
                },
                "verificationStatus": {
                    "coding": [
                        {
                            "code": "refuted",
                            "display": "Refuted",
                            "system": "http://terminology.hl7.org/CodeSystem/condition-ver-status"
                        },
                        {
                            "code": "410594000",
                            "display": "Definitely NOT present (qualifier value)",
                            "system": "http://snomed.info/sct"
                        }
                    ]
                },
                "resourceType": "Condition"
            }
        },
        {
            "request": {
                "method": "POST",
                "url": "Condition"
            },
            "resource": {
                "id": "ffd79af6-9e34-4e16-834b-c435ff91caaa",
                "meta": {
                    "profile": [
                        "https://www.netzwerk-universitaetsmedizin.de/fhir/StructureDefinition/symptoms-covid-19"
                    ]
                },
                "category": [
                    {
                        "coding": [
                            {
                                "code": "75325-1",
                                "display": "Symptom",
                                "system": "http://loinc.org"
                            }
                        ]
                    }
                ],
                "clinicalStatus": {
                    "coding": [
                        {
                            "code": "active",
                            "display": "Active",
                            "system": "http://terminology.hl7.org/CodeSystem/condition-clinical"
                        }
                    ]
                },
                "code": {
                    "coding": [
                        {
                            "code": "21522001",
                            "display": "Abdominal pain (finding)",
                            "system": "http://snomed.info/sct"
                        }
                    ]
                },
                "recordedDate": "2020-11-17T10:51:05+01:00",
                "subject": {
                    "reference": "Patient/80345e54-a523-478f-98b2-1412e5abb316"
                },
                "verificationStatus": {
                    "coding": [
                        {
                            "code": "confirmed",
                            "display": "Confirmed",
                            "system": "http://terminology.hl7.org/CodeSystem/condition-ver-status"
                        },
                        {
                            "code": "410605003",
                            "display": "Confirmed present (qualifier value)",
                            "system": "http://snomed.info/sct"
                        }
                    ]
                },
                "resourceType": "Condition"
            }
        },
        {
            "request": {
                "method": "POST",
                "url": "Condition"
            },
            "resource": {
                "id": "ee759d2f-4fb3-44f8-aef1-a5c86a8287a1",
                "meta": {
                    "profile": [
                        "https://www.netzwerk-universitaetsmedizin.de/fhir/StructureDefinition/symptoms-covid-19"
                    ]
                },
                "category": [
                    {
                        "coding": [
                            {
                                "code": "75325-1",
                                "display": "Symptom",
                                "system": "http://loinc.org"
                            }
                        ]
                    }
                ],
                "code": {
                    "coding": [
                        {
                            "code": "40917007",
                            "display": "Clouded consciousness (finding)",
                            "system": "http://snomed.info/sct"
                        }
                    ]
                },
                "recordedDate": "2020-11-17T10:51:05+01:00",
                "subject": {
                    "reference": "Patient/80345e54-a523-478f-98b2-1412e5abb316"
                },
                "verificationStatus": {
                    "coding": [
                        {
                            "code": "refuted",
                            "display": "Refuted",
                            "system": "http://terminology.hl7.org/CodeSystem/condition-ver-status"
                        },
                        {
                            "code": "410594000",
                            "display": "Definitely NOT present (qualifier value)",
                            "system": "http://snomed.info/sct"
                        }
                    ]
                },
                "resourceType": "Condition"
            }
        },
        {
            "request": {
                "method": "POST",
                "url": "Condition"
            },
            "resource": {
                "id": "bbeaefaf-ec00-4776-b8ca-25edf0d80c19",
                "meta": {
                    "profile": [
                        "https://www.netzwerk-universitaetsmedizin.de/fhir/StructureDefinition/symptoms-covid-19"
                    ]
                },
                "category": [
                    {
                        "coding": [
                            {
                                "code": "75325-1",
                                "display": "Symptom",
                                "system": "http://loinc.org"
                            }
                        ]
                    }
                ],
                "clinicalStatus": {
                    "coding": [
                        {
                            "code": "active",
                            "display": "Active",
                            "system": "http://terminology.hl7.org/CodeSystem/condition-clinical"
                        }
                    ]
                },
                "code": {
                    "coding": [
                        {
                            "code": "62315008",
                            "display": "Diarrhea (finding)",
                            "system": "http://snomed.info/sct"
                        }
                    ]
                },
                "recordedDate": "2020-11-17T10:51:05+01:00",
                "subject": {
                    "reference": "Patient/80345e54-a523-478f-98b2-1412e5abb316"
                },
                "verificationStatus": {
                    "coding": [
                        {
                            "code": "confirmed",
                            "display": "Confirmed",
                            "system": "http://terminology.hl7.org/CodeSystem/condition-ver-status"
                        },
                        {
                            "code": "410605003",
                            "display": "Confirmed present (qualifier value)",
                            "system": "http://snomed.info/sct"
                        }
                    ]
                },
                "resourceType": "Condition"
            }
        },
        {
            "request": {
                "method": "POST",
                "url": "Condition"
            },
            "resource": {
                "id": "3f5a26dc-491a-4f69-9dea-63c72b4a5ed3",
                "meta": {
                    "profile": [
                        "https://www.netzwerk-universitaetsmedizin.de/fhir/StructureDefinition/symptoms-covid-19"
                    ]
                },
                "extension": [
                    {
                        "url": "https://www.netzwerk-universitaetsmedizin.de/fhir/StructureDefinition/uncertainty-of-presence",
                        "valueCodeableConcept": {
                            "coding": [
                                {
                                    "code": "261665006",
                                    "display": "Unknown (qualifier value)",
                                    "system": "http://snomed.info/sct"
                                }
                            ],
                            "text": "Presence of symptom is unknown."
                        }
                    }
                ],
                "category": [
                    {
                        "coding": [
                            {
                                "code": "75325-1",
                                "display": "Symptom",
                                "system": "http://loinc.org"
                            }
                        ]
                    }
                ],
                "code": {
                    "coding": [
                        {
                            "code": "422400008",
                            "display": "Vomiting (disorder)",
                            "system": "http://snomed.info/sct"
                        }
                    ]
                },
                "recordedDate": "2020-11-17T10:51:05+01:00",
                "subject": {
                    "reference": "Patient/80345e54-a523-478f-98b2-1412e5abb316"
                },
                "resourceType": "Condition"
            }
        },
        {
            "request": {
                "method": "POST",
                "url": "Condition"
            },
            "resource": {
                "id": "453713fa-9ca7-4772-bf05-b6575d06adaf",
                "meta": {
                    "profile": [
                        "https://www.netzwerk-universitaetsmedizin.de/fhir/StructureDefinition/symptoms-covid-19"
                    ]
                },
                "category": [
                    {
                        "coding": [
                            {
                                "code": "75325-1",
                                "display": "Symptom",
                                "system": "http://loinc.org"
                            }
                        ]
                    }
                ],
                "clinicalStatus": {
                    "coding": [
                        {
                            "code": "active",
                            "display": "Active",
                            "system": "http://terminology.hl7.org/CodeSystem/condition-clinical"
                        }
                    ]
                },
                "code": {
                    "coding": [
                        {
                            "code": "49727002",
                            "display": "Cough (finding)",
                            "system": "http://snomed.info/sct"
                        }
                    ]
                },
                "recordedDate": "2020-11-17T10:51:05+01:00",
                "severity": {
                    "coding": [
                        {
                            "code": "6736007",
                            "display": "Moderate (severity modifier) (qualifier value)",
                            "system": "http://snomed.info/sct"
                        }
                    ]
                },
                "subject": {
                    "reference": "Patient/80345e54-a523-478f-98b2-1412e5abb316"
                },
                "verificationStatus": {
                    "coding": [
                        {
                            "code": "confirmed",
                            "display": "Confirmed",
                            "system": "http://terminology.hl7.org/CodeSystem/condition-ver-status"
                        },
                        {
                            "code": "410605003",
                            "display": "Confirmed present (qualifier value)",
                            "system": "http://snomed.info/sct"
                        }
                    ]
                },
                "resourceType": "Condition"
            }
        },
        {
            "request": {
                "method": "POST",
                "url": "Condition"
            },
            "resource": {
                "id": "7807fd49-65f7-4cdb-b8e6-6842fd8489c7",
                "meta": {
                    "profile": [
                        "https://www.netzwerk-universitaetsmedizin.de/fhir/StructureDefinition/symptoms-covid-19"
                    ]
                },
                "category": [
                    {
                        "coding": [
                            {
                                "code": "75325-1",
                                "display": "Symptom",
                                "system": "http://loinc.org"
                            }
                        ]
                    }
                ],
                "clinicalStatus": {
                    "coding": [
                        {
                            "code": "active",
                            "display": "Active",
                            "system": "http://terminology.hl7.org/CodeSystem/condition-clinical"
                        }
                    ]
                },
                "code": {
                    "coding": [
                        {
                            "code": "267036007",
                            "display": "Dyspnea (finding)",
                            "system": "http://snomed.info/sct"
                        }
                    ]
                },
                "recordedDate": "2020-11-17T10:51:05+01:00",
                "severity": {
                    "coding": [
                        {
                            "code": "255604002",
                            "display": "Mild (qualifier value)",
                            "system": "http://snomed.info/sct"
                        }
                    ]
                },
                "subject": {
                    "reference": "Patient/80345e54-a523-478f-98b2-1412e5abb316"
                },
                "verificationStatus": {
                    "coding": [
                        {
                            "code": "confirmed",
                            "display": "Confirmed",
                            "system": "http://terminology.hl7.org/CodeSystem/condition-ver-status"
                        },
                        {
                            "code": "410605003",
                            "display": "Confirmed present (qualifier value)",
                            "system": "http://snomed.info/sct"
                        }
                    ]
                },
                "resourceType": "Condition"
            }
        },
        {
            "request": {
                "method": "POST",
                "url": "Condition"
            },
            "resource": {
                "id": "54655cfd-adc4-42c4-addd-087eef8410fb",
                "meta": {
                    "profile": [
                        "https://www.netzwerk-universitaetsmedizin.de/fhir/StructureDefinition/symptoms-covid-19"
                    ]
                },
                "category": [
                    {
                        "coding": [
                            {
                                "code": "75325-1",
                                "display": "Symptom",
                                "system": "http://loinc.org"
                            }
                        ]
                    }
                ],
                "code": {
                    "coding": [
                        {
                            "code": "422587007",
                            "display": "Nausea (finding)",
                            "system": "http://snomed.info/sct"
                        }
                    ]
                },
                "recordedDate": "2020-11-17T10:51:05+01:00",
                "subject": {
                    "reference": "Patient/80345e54-a523-478f-98b2-1412e5abb316"
                },
                "verificationStatus": {
                    "coding": [
                        {
                            "code": "refuted",
                            "display": "Refuted",
                            "system": "http://terminology.hl7.org/CodeSystem/condition-ver-status"
                        },
                        {
                            "code": "410594000",
                            "display": "Definitely NOT present (qualifier value)",
                            "system": "http://snomed.info/sct"
                        }
                    ]
                },
                "resourceType": "Condition"
            }
        },
        {
            "request": {
                "method": "POST",
                "url": "Condition"
            },
            "resource": {
                "id": "921d7e97-f289-412c-bda3-2a2cba913e0e",
                "meta": {
                    "profile": [
                        "https://www.netzwerk-universitaetsmedizin.de/fhir/StructureDefinition/symptoms-covid-19"
                    ]
                },
                "category": [
                    {
                        "coding": [
                            {
                                "code": "75325-1",
                                "display": "Symptom",
                                "system": "http://loinc.org"
                            }
                        ]
                    }
                ],
                "clinicalStatus": {
                    "coding": [
                        {
                            "code": "active",
                            "display": "Active",
                            "system": "http://terminology.hl7.org/CodeSystem/condition-clinical"
                        }
                    ]
                },
                "code": {
                    "coding": [
                        {
                            "code": "426000000",
                            "display": "Fever greater than 100.4 Fahrenheit / 38\u00b0 Celsius (finding)",
                            "system": "http://snomed.info/sct"
                        }
                    ]
                },
                "recordedDate": "2020-11-17T10:51:05+01:00",
                "severity": {
                    "coding": [
                        {
                            "code": "24484000",
                            "display": "Severe (severity modifier) (qualifier value)",
                            "system": "http://snomed.info/sct"
                        }
                    ]
                },
                "subject": {
                    "reference": "Patient/80345e54-a523-478f-98b2-1412e5abb316"
                },
                "verificationStatus": {
                    "coding": [
                        {
                            "code": "confirmed",
                            "display": "Confirmed",
                            "system": "http://terminology.hl7.org/CodeSystem/condition-ver-status"
                        },
                        {
                            "code": "410605003",
                            "display": "Confirmed present (qualifier value)",
                            "system": "http://snomed.info/sct"
                        }
                    ]
                },
                "resourceType": "Condition"
            }
        },
        {
            "request": {
                "method": "POST",
                "url": "Condition"
            },
            "resource": {
                "id": "b24b6492-6c4e-4db3-832b-182c86e92633",
                "meta": {
                    "profile": [
                        "https://www.netzwerk-universitaetsmedizin.de/fhir/StructureDefinition/symptoms-covid-19"
                    ]
                },
                "category": [
                    {
                        "coding": [
                            {
                                "code": "75325-1",
                                "display": "Symptom",
                                "system": "http://loinc.org"
                            }
                        ]
                    }
                ],
                "code": {
                    "coding": [
                        {
                            "code": "25064002",
                            "display": "Headache (finding)",
                            "system": "http://snomed.info/sct"
                        }
                    ]
                },
                "recordedDate": "2020-11-17T10:51:05+01:00",
                "subject": {
                    "reference": "Patient/80345e54-a523-478f-98b2-1412e5abb316"
                },
                "verificationStatus": {
                    "coding": [
                        {
                            "code": "refuted",
                            "display": "Refuted",
                            "system": "http://terminology.hl7.org/CodeSystem/condition-ver-status"
                        },
                        {
                            "code": "410594000",
                            "display": "Definitely NOT present (qualifier value)",
                            "system": "http://snomed.info/sct"
                        }
                    ]
                },
                "resourceType": "Condition"
            }
        },
        {
            "request": {
                "method": "POST",
                "url": "Procedure"
            },
            "resource": {
                "id": "5e6ccf6b-8257-44f8-b6f3-478ffa556f7f",
                "meta": {
                    "profile": [
                        "https://www.netzwerk-universitaetsmedizin.de/fhir/StructureDefinition/dialysis"
                    ]
                },
                "category": {
                    "coding": [
                        {
                            "code": "277132007",
                            "display": "Therapeutic procedure (procedure)",
                            "system": "http://snomed.info/sct"
                        }
                    ]
                },
                "code": {
                    "coding": [
                        {
                            "code": "108241001",
                            "display": "Dialysis procedure (procedure)",
                            "system": "http://snomed.info/sct"
                        }
                    ],
                    "text": "Dialysis"
                },
                "performedDateTime": "2020-11-17T10:51:05+01:00",
                "status": "in-progress",
                "subject": {
                    "reference": "Patient/80345e54-a523-478f-98b2-1412e5abb316"
                },
                "resourceType": "Procedure"
            }
        },
        {
            "request": {
                "method": "POST",
                "url": "Procedure"
            },
            "resource": {
                "id": "73971666-bf79-4d69-84ee-34234af4e9cf",
                "meta": {
                    "profile": [
                        "https://www.netzwerk-universitaetsmedizin.de/fhir/StructureDefinition/apheresis"
                    ]
                },
                "category": {
                    "coding": [
                        {
                            "code": "277132007",
                            "display": "Therapeutic procedure (procedure)",
                            "system": "http://snomed.info/sct"
                        }
                    ]
                },
                "code": {
                    "coding": [
                        {
                            "code": "127788007",
                            "display": "Apheresis (procedure)",
                            "system": "http://snomed.info/sct"
                        }
                    ],
                    "text": "Apheresis"
                },
                "performedDateTime": "2020-11-17T10:51:05+01:00",
                "status": "in-progress",
                "subject": {
                    "reference": "Patient/80345e54-a523-478f-98b2-1412e5abb316"
                },
                "resourceType": "Procedure"
            }
        },
        {
            "request": {
                "method": "POST",
                "url": "Procedure"
            },
            "resource": {
                "id": "2d4af225-adf6-4cf9-a3f4-367178eaef4e",
                "meta": {
                    "profile": [
                        "https://www.netzwerk-universitaetsmedizin.de/fhir/StructureDefinition/prone-position"
                    ]
                },
                "category": {
                    "coding": [
                        {
                            "code": "225287004",
                            "display": "Procedures relating to positioning and support (procedure)",
                            "system": "http://snomed.info/sct"
                        }
                    ]
                },
                "code": {
                    "coding": [
                        {
                            "code": "431182000",
                            "display": "Placing subject in prone position (procedure)",
                            "system": "http://snomed.info/sct"
                        }
                    ],
                    "text": "Prone position"
                },
                "performedDateTime": "2020-11-17T10:51:05+01:00",
                "status": "in-progress",
                "subject": {
                    "reference": "Patient/80345e54-a523-478f-98b2-1412e5abb316"
                },
                "resourceType": "Procedure"
            }
        },
        {
            "request": {
                "method": "POST",
                "url": "Procedure"
            },
            "resource": {
                "id": "007aaae8-eac7-46e4-ac83-d4acfdc01582",
                "meta": {
                    "profile": [
                        "https://www.netzwerk-universitaetsmedizin.de/fhir/StructureDefinition/extracorporeal-membrane-oxygenation"
                    ]
                },
                "category": {
                    "coding": [
                        {
                            "code": "277132007",
                            "display": "Therapeutic procedure (procedure)",
                            "system": "http://snomed.info/sct"
                        }
                    ]
                },
                "code": {
                    "coding": [
                        {
                            "code": "233573008",
                            "display": "Extracorporeal membrane oxygenation (procedure)",
                            "system": "http://snomed.info/sct"
                        }
                    ],
                    "text": "ECMO"
                },
                "performedDateTime": "2020-11-17T10:51:05+01:00",
                "status": "in-progress",
                "subject": {
                    "reference": "Patient/80345e54-a523-478f-98b2-1412e5abb316"
                },
                "resourceType": "Procedure"
            }
        },
        {
            "request": {
                "method": "PUT",
                "url": "Observation/f4e0a61e-0f58-43f4-bbf9-ebb6e66ea2a0"
            },
            "resource": {
                "id": "f4e0a61e-0f58-43f4-bbf9-ebb6e66ea2a0",
                "meta": {
                    "profile": [
                        "https://www.netzwerk-universitaetsmedizin.de/fhir/StructureDefinition/patient-in-icu"
                    ]
                },
                "category": [
                    {
                        "coding": [
                            {
                                "code": "survey",
                                "display": "Survey",
                                "system": "http://terminology.hl7.org/CodeSystem/observation-category"
                            }
                        ]
                    }
                ],
                "code": {
                    "coding": [
                        {
                            "code": "01",
                            "display": "Is the patient in the intensive care unit?",
                            "system": "https://www.netzwerk-universitaetsmedizin.de/fhir/CodeSystem/ecrf-parameter-codes"
                        }
                    ]
                },
                "effectiveDateTime": "2020-11-17T10:51:05+01:00",
                "status": "final",
                "subject": {
                    "reference": "Patient/80345e54-a523-478f-98b2-1412e5abb316"
                },
                "valueCodeableConcept": {
                    "coding": [
                        {
                            "code": "261665006",
                            "display": "Unknown (qualifier value)",
                            "system": "http://snomed.info/sct"
                        }
                    ]
                },
                "resourceType": "Observation"
            }
        },
        {
            "request": {
                "method": "POST",
                "url": "Procedure"
            },
            "resource": {
                "id": "e0f4e562-5777-4754-9781-c60c2cfd8195",
                "meta": {
                    "profile": [
                        "https://www.netzwerk-universitaetsmedizin.de/fhir/StructureDefinition/respiratory-therapies"
                    ]
                },
                "category": {
                    "coding": [
                        {
                            "code": "277132007",
                            "display": "Therapeutic procedure (procedure)",
                            "system": "http://snomed.info/sct"
                        }
                    ]
                },
                "code": {
                    "coding": [
                        {
                            "code": "40617009",
                            "display": "Artificial respiration (procedure)",
                            "system": "http://snomed.info/sct"
                        }
                    ],
                    "text": "Invasive ventilation (orotracheal)"
                },
                "performedDateTime": "2020-11-17T10:51:05+01:00",
                "status": "in-progress",
                "subject": {
                    "reference": "Patient/80345e54-a523-478f-98b2-1412e5abb316"
                },
                "usedCode": [
                    {
                        "coding": [
                            {
                                "code": "26412008",
                                "display": "Endotracheal tube, device (physical object)",
                                "system": "http://snomed.info/sct"
                            }
                        ]
                    }
                ],
                "resourceType": "Procedure"
            }
        },
        {
            "request": {
                "method": "PUT",
                "url": "Observation/deb46ac2-2944-4b09-b1e2-025a4ae38604"
            },
            "resource": {
                "id": "deb46ac2-2944-4b09-b1e2-025a4ae38604",
                "meta": {
                    "profile": [
                        "https://www.netzwerk-universitaetsmedizin.de/fhir/StructureDefinition/carbon-dioxide-partial-pressure"
                    ]
                },
                "category": [
                    {
                        "coding": [
                            {
                                "code": "26436-6",
                                "system": "http://loinc.org"
                            },
                            {
                                "code": "laboratory",
                                "system": "http://terminology.hl7.org/CodeSystem/observation-category"
                            },
                            {
                                "code": "18767-4",
                                "system": "http://loinc.org"
                            }
                        ]
                    }
                ],
                "code": {
                    "coding": [
                        {
                            "code": "2019-8",
                            "display": "Carbon dioxide [Partial pressure] in Arterial blood",
                            "system": "http://loinc.org"
                        }
                    ],
                    "text": "paCO2"
                },
                "effectiveDateTime": "2020-11-17T10:51:05+01:00",
                "identifier": [
                    {
                        "assigner": {
                            "reference": "Organization/Charit\u00e9"
                        },
                        "system": "https://www.charite.de/fhir/CodeSystem/lab-identifiers",
                        "type": {
                            "coding": [
                                {
                                    "code": "OBI",
                                    "system": "http://terminology.hl7.org/CodeSystem/v2-0203"
                                }
                            ]
                        },
                        "value": "2019-8_paCO2"
                    }
                ],
                "status": "final",
                "subject": {
                    "reference": "Patient/80345e54-a523-478f-98b2-1412e5abb316"
                },
                "valueQuantity": {
                    "code": "mm[Hg]",
                    "system": "http://unitsofmeasure.org",
                    "unit": "mmHg",
                    "value": 38
                },
                "resourceType": "Observation"
            }
        },
        {
            "request": {
                "method": "PUT",
                "url": "Observation/fe6ea93d-b6ad-4850-aa1b-7c84eddbc05b"
            },
            "resource": {
                "id": "fe6ea93d-b6ad-4850-aa1b-7c84eddbc05b",
                "meta": {
                    "profile": [
                        "https://www.netzwerk-universitaetsmedizin.de/fhir/StructureDefinition/oxygen-partial-pressure"
                    ]
                },
                "category": [
                    {
                        "coding": [
                            {
                                "code": "26436-6",
                                "system": "http://loinc.org"
                            },
                            {
                                "code": "laboratory",
                                "system": "http://terminology.hl7.org/CodeSystem/observation-category"
                            },
                            {
                                "code": "18767-4",
                                "system": "http://loinc.org"
                            }
                        ]
                    }
                ],
                "code": {
                    "coding": [
                        {
                            "code": "2703-7",
                            "display": "Oxygen [Partial pressure] in Arterial blood",
                            "system": "http://loinc.org"
                        }
                    ],
                    "text": "paO2"
                },
                "effectiveDateTime": "2020-11-17T10:51:05+01:00",
                "identifier": [
                    {
                        "assigner": {
                            "reference": "Organization/Charit\u00e9"
                        },
                        "system": "https://www.charite.de/fhir/CodeSystem/lab-identifiers",
                        "type": {
                            "coding": [
                                {
                                    "code": "OBI",
                                    "system": "http://terminology.hl7.org/CodeSystem/v2-0203"
                                }
                            ]
                        },
                        "value": "2703-7_paO2"
                    }
                ],
                "status": "final",
                "subject": {
                    "reference": "Patient/80345e54-a523-478f-98b2-1412e5abb316"
                },
                "valueQuantity": {
                    "code": "mm[Hg]",
                    "system": "http://unitsofmeasure.org",
                    "unit": "mmHg",
                    "value": 96
                },
                "resourceType": "Observation"
            }
        },
        {
            "request": {
                "method": "PUT",
                "url": "Observation/e924f86c-1eb0-4dbc-9cfe-8ff03004fac8"
            },
            "resource": {
                "id": "e924f86c-1eb0-4dbc-9cfe-8ff03004fac8",
                "meta": {
                    "profile": [
                        "https://www.netzwerk-universitaetsmedizin.de/fhir/StructureDefinition/inhaled-oxygen-concentration"
                    ]
                },
                "category": [
                    {
                        "coding": [
                            {
                                "code": "26436-6",
                                "system": "http://loinc.org"
                            },
                            {
                                "code": "laboratory",
                                "system": "http://terminology.hl7.org/CodeSystem/observation-category"
                            },
                            {
                                "code": "18767-4",
                                "system": "http://loinc.org"
                            }
                        ]
                    }
                ],
                "code": {
                    "coding": [
                        {
                            "code": "3150-0",
                            "display": "Inhaled oxygen concentration",
                            "system": "http://loinc.org"
                        }
                    ],
                    "text": "FiO2"
                },
                "effectiveDateTime": "2020-11-17T10:51:05+01:00",
                "identifier": [
                    {
                        "assigner": {
                            "reference": "Organization/Charit\u00e9"
                        },
                        "system": "https://www.charite.de/fhir/CodeSystem/lab-identifiers",
                        "type": {
                            "coding": [
                                {
                                    "code": "OBI",
                                    "system": "http://terminology.hl7.org/CodeSystem/v2-0203"
                                }
                            ]
                        },
                        "value": "3150-0_FiO2"
                    }
                ],
                "status": "final",
                "subject": {
                    "reference": "Patient/80345e54-a523-478f-98b2-1412e5abb316"
                },
                "valueQuantity": {
                    "code": "%",
                    "system": "http://unitsofmeasure.org",
                    "unit": "%",
                    "value": 82
                },
                "resourceType": "Observation"
            }
        },
        {
            "request": {
                "method": "PUT",
                "url": "Observation/e738264a-09a5-4323-b829-a5c84fc9b8f7"
            },
            "resource": {
                "id": "e738264a-09a5-4323-b829-a5c84fc9b8f7",
                "meta": {
                    "profile": [
                        "https://www.netzwerk-universitaetsmedizin.de/fhir/StructureDefinition/pH"
                    ]
                },
                "category": [
                    {
                        "coding": [
                            {
                                "code": "26436-6",
                                "system": "http://loinc.org"
                            },
                            {
                                "code": "laboratory",
                                "system": "http://terminology.hl7.org/CodeSystem/observation-category"
                            },
                            {
                                "code": "18767-4",
                                "system": "http://loinc.org"
                            }
                        ]
                    }
                ],
                "code": {
                    "coding": [
                        {
                            "code": "2744-1",
                            "display": "pH of Arterial blood",
                            "system": "http://loinc.org"
                        }
                    ],
                    "text": "pH"
                },
                "effectiveDateTime": "2020-11-17T10:51:05+01:00",
                "identifier": [
                    {
                        "assigner": {
                            "reference": "Organization/Charit\u00e9"
                        },
                        "system": "https://www.charite.de/fhir/CodeSystem/lab-identifiers",
                        "type": {
                            "coding": [
                                {
                                    "code": "OBI",
                                    "system": "http://terminology.hl7.org/CodeSystem/v2-0203"
                                }
                            ]
                        },
                        "value": "2744-1_pH"
                    }
                ],
                "status": "final",
                "subject": {
                    "reference": "Patient/80345e54-a523-478f-98b2-1412e5abb316"
                },
                "valueQuantity": {
                    "code": "[pH]",
                    "system": "http://unitsofmeasure.org",
                    "unit": "pH",
                    "value": 7.37
                },
                "resourceType": "Observation"
            }
        },
        {
            "request": {
                "method": "PUT",
                "url": "Observation/22dd5398-a260-4bb5-b5c7-c8c9b67fb94c"
            },
            "resource": {
                "id": "22dd5398-a260-4bb5-b5c7-c8c9b67fb94c",
                "meta": {
                    "profile": [
                        "https://www.netzwerk-universitaetsmedizin.de/fhir/StructureDefinition/oxygen-saturation"
                    ]
                },
                "category": [
                    {
                        "coding": [
                            {
                                "code": "vital-signs",
                                "system": "http://terminology.hl7.org/CodeSystem/observation-category"
                            }
                        ]
                    }
                ],
                "code": {
                    "coding": [
                        {
                            "code": "2708-6",
                            "display": "Oxygen saturation in Arterial blood",
                            "system": "http://loinc.org"
                        }
                    ],
                    "text": "Oxygen saturation"
                },
                "effectiveDateTime": "2020-11-17T10:51:05+01:00",
                "identifier": [
                    {
                        "assigner": {
                            "reference": "Organization/Charit\u00e9"
                        },
                        "system": "https://www.charite.de/fhir/CodeSystem/lab-identifiers",
                        "type": {
                            "coding": [
                                {
                                    "code": "OBI",
                                    "system": "http://terminology.hl7.org/CodeSystem/v2-0203"
                                }
                            ]
                        },
                        "value": "2708-6_OxygenSaturation"
                    }
                ],
                "status": "final",
                "subject": {
                    "reference": "Patient/80345e54-a523-478f-98b2-1412e5abb316"
                },
                "valueQuantity": {
                    "code": "%",
                    "system": "http://unitsofmeasure.org",
                    "unit": "%",
                    "value": 89
                },
                "resourceType": "Observation"
            }
        },
        {
            "request": {
                "method": "PUT",
                "url": "Observation/3c61e92c-83f5-47a9-950d-2cbe3e74b469"
            },
            "resource": {
                "id": "3c61e92c-83f5-47a9-950d-2cbe3e74b469",
                "meta": {
                    "profile": [
                        "https://www.netzwerk-universitaetsmedizin.de/fhir/StructureDefinition/blood-gas-panel"
                    ]
                },
                "category": [
                    {
                        "coding": [
                            {
                                "code": "26436-6",
                                "system": "http://loinc.org"
                            },
                            {
                                "code": "laboratory",
                                "system": "http://terminology.hl7.org/CodeSystem/observation-category"
                            },
                            {
                                "code": "18767-4",
                                "system": "http://loinc.org"
                            }
                        ]
                    }
                ],
                "code": {
                    "coding": [
                        {
                            "code": "24336-0",
                            "display": "Gas panel (BldA)",
                            "system": "http://loinc.org"
                        }
                    ],
                    "text": "Gas panel - Arterial blood"
                },
                "effectiveDateTime": "2020-11-17T10:51:05+01:00",
                "hasMember": [
                    {
                        "reference": "Observation/deb46ac2-2944-4b09-b1e2-025a4ae38604"
                    },
                    {
                        "reference": "Observation/fe6ea93d-b6ad-4850-aa1b-7c84eddbc05b"
                    },
                    {
                        "reference": "Observation/e924f86c-1eb0-4dbc-9cfe-8ff03004fac8"
                    },
                    {
                        "reference": "Observation/e738264a-09a5-4323-b829-a5c84fc9b8f7"
                    },
                    {
                        "reference": "Observation/22dd5398-a260-4bb5-b5c7-c8c9b67fb94c"
                    }
                ],
                "identifier": [
                    {
                        "assigner": {
                            "reference": "Organization/Charit\u00e9"
                        },
                        "system": "https://www.charite.de/fhir/CodeSystem/lab-identifiers",
                        "type": {
                            "coding": [
                                {
                                    "code": "OBI",
                                    "system": "http://terminology.hl7.org/CodeSystem/v2-0203"
                                }
                            ]
                        },
                        "value": "24336-0_gasPanelBldA"
                    }
                ],
                "status": "final",
                "subject": {
                    "reference": "Patient/80345e54-a523-478f-98b2-1412e5abb316"
                },
                "resourceType": "Observation"
            }
        },
        {
            "request": {
                "method": "PUT",
                "url": "Observation/6e1d6db6-7ac1-4de5-a763-fc3fc650cb18"
            },
            "resource": {
                "id": "6e1d6db6-7ac1-4de5-a763-fc3fc650cb18",
                "meta": {
                    "profile": [
                        "https://www.netzwerk-universitaetsmedizin.de/fhir/StructureDefinition/sofa-score"
                    ]
                },
                "category": [
                    {
                        "coding": [
                            {
                                "code": "survey",
                                "system": "http://terminology.hl7.org/CodeSystem/observation-category"
                            }
                        ]
                    }
                ],
                "code": {
                    "coding": [
                        {
                            "code": "06",
                            "display": "SOFA-Score",
                            "system": "https://www.netzwerk-universitaetsmedizin.de/fhir/CodeSystem/ecrf-parameter-codes"
                        }
                    ],
                    "text": "Sepsis-related organ failure assessment score"
                },
                "component": [
                    {
                        "code": {
                            "coding": [
                                {
                                    "code": "resp",
                                    "display": "Respiratory system",
                                    "system": "https://www.netzwerk-universitaetsmedizin.de/fhir/CodeSystem/sofa-score"
                                }
                            ],
                            "text": "SOFA Respiratory system scoring category"
                        },
                        "valueCodeableConcept": {
                            "coding": [
                                {
                                    "code": "resp2",
                                    "display": "Respiratory system SOFA score 2",
                                    "system": "https://www.netzwerk-universitaetsmedizin.de/fhir/CodeSystem/sofa-score"
                                }
                            ],
                            "text": "PaO2/FiO2 [mmHg (kPa)] < 300 (40)"
                        }
                    },
                    {
                        "code": {
                            "coding": [
                                {
                                    "code": "ns",
                                    "display": "Nervous system",
                                    "system": "https://www.netzwerk-universitaetsmedizin.de/fhir/CodeSystem/sofa-score"
                                }
                            ],
                            "text": "SOFA Nervous system scoring category"
                        },
                        "valueCodeableConcept": {
                            "coding": [
                                {
                                    "code": "ns1",
                                    "display": "Nervous system SOFA score 1",
                                    "system": "https://www.netzwerk-universitaetsmedizin.de/fhir/CodeSystem/sofa-score"
                                }
                            ],
                            "text": "Glasgow Coma Scale (GCS) 13-14"
                        }
                    },
                    {
                        "code": {
                            "coding": [
                                {
                                    "code": "cvs",
                                    "display": "Cardiovascular system",
                                    "system": "https://www.netzwerk-universitaetsmedizin.de/fhir/CodeSystem/sofa-score"
                                }
                            ],
                            "text": "SOFA Cardiovascular system scoring category"
                        },
                        "valueCodeableConcept": {
                            "coding": [
                                {
                                    "code": "cvs0",
                                    "display": "Cardiovascular system SOFA score 0",
                                    "system": "https://www.netzwerk-universitaetsmedizin.de/fhir/CodeSystem/sofa-score"
                                }
                            ],
                            "text": "Mean arterial pressure (MAP) \u2265 70 mmHg"
                        }
                    },
                    {
                        "code": {
                            "coding": [
                                {
                                    "code": "liv",
                                    "display": "Liver",
                                    "system": "https://www.netzwerk-universitaetsmedizin.de/fhir/CodeSystem/sofa-score"
                                }
                            ],
                            "text": "SOFA Liver scoring category"
                        },
                        "valueCodeableConcept": {
                            "coding": [
                                {
                                    "code": "liv0",
                                    "display": "Liver SOFA score 0",
                                    "system": "https://www.netzwerk-universitaetsmedizin.de/fhir/CodeSystem/sofa-score"
                                }
                            ],
                            "text": "Bilirubin (mg/dl) [umol/L] < 1.2 [< 20]"
                        }
                    },
                    {
                        "code": {
                            "coding": [
                                {
                                    "code": "coa",
                                    "display": "Coagulation",
                                    "system": "https://www.netzwerk-universitaetsmedizin.de/fhir/CodeSystem/sofa-score"
                                }
                            ],
                            "text": "SOFA Coagulation scoring category"
                        },
                        "valueCodeableConcept": {
                            "coding": [
                                {
                                    "code": "coa1",
                                    "display": "Coagulation SOFA score 1",
                                    "system": "https://www.netzwerk-universitaetsmedizin.de/fhir/CodeSystem/sofa-score"
                                }
                            ],
                            "text": "Platelets\u00d710^3/ul < 150"
                        }
                    },
                    {
                        "code": {
                            "coding": [
                                {
                                    "code": "kid",
                                    "display": "Kidneys",
                                    "system": "https://www.netzwerk-universitaetsmedizin.de/fhir/CodeSystem/sofa-score"
                                }
                            ],
                            "text": "SOFA Kidneys scoring category"
                        },
                        "valueCodeableConcept": {
                            "coding": [
                                {
                                    "code": "kid4",
                                    "display": "Kidneys SOFA score 4",
                                    "system": "https://www.netzwerk-universitaetsmedizin.de/fhir/CodeSystem/sofa-score"
                                }
                            ],
                            "text": "Creatinine (mg/dl) [umol/L] (or urine output) > 5.0 [> 440] (or < 200 ml/d)"
                        }
                    }
                ],
                "effectiveDateTime": "2020-11-17T10:51:05+01:00",
                "identifier": [
                    {
                        "assigner": {
                            "reference": "Organization/Charit\u00e9"
                        },
                        "system": "https://www.charite.de/fhir/CodeSystem/observation-identifiers",
                        "type": {
                            "coding": [
                                {
                                    "code": "OBI",
                                    "system": "http://terminology.hl7.org/CodeSystem/v2-0203"
                                }
                            ]
                        },
                        "value": "06_SOFA-Score"
                    }
                ],
                "status": "final",
                "subject": {
                    "reference": "Patient/80345e54-a523-478f-98b2-1412e5abb316"
                },
                "resourceType": "Observation"
            }
        },
        {
            "request": {
                "method": "PUT",
                "url": "Observation/58d86c4d-95a3-4905-ace0-97f470573441"
            },
            "resource": {
                "id": "58d86c4d-95a3-4905-ace0-97f470573441",
                "meta": {
                    "profile": [
                        "https://www.netzwerk-universitaetsmedizin.de/fhir/StructureDefinition/heart-rate"
                    ]
                },
                "category": [
                    {
                        "coding": [
                            {
                                "code": "vital-signs",
                                "system": "http://terminology.hl7.org/CodeSystem/observation-category"
                            }
                        ]
                    }
                ],
                "code": {
                    "coding": [
                        {
                            "code": "8867-4",
                            "display": "Heart rate",
                            "system": "http://loinc.org"
                        },
                        {
                            "code": "364075005",
                            "display": "Heart rate (observable entity)",
                            "system": "http://snomed.info/sct"
                        }
                    ],
                    "text": "Heart rate"
                },
                "effectiveDateTime": "2020-11-17T10:51:05+01:00",
                "identifier": [
                    {
                        "assigner": {
                            "reference": "Organization/Charit\u00e9"
                        },
                        "system": "https://www.charite.de/fhir/CodeSystem/observation-identifiers",
                        "type": {
                            "coding": [
                                {
                                    "code": "OBI",
                                    "system": "http://terminology.hl7.org/CodeSystem/v2-0203"
                                }
                            ]
                        },
                        "value": "8867-4_HeartRate"
                    }
                ],
                "status": "final",
                "subject": {
                    "reference": "Patient/80345e54-a523-478f-98b2-1412e5abb316"
                },
                "valueQuantity": {
                    "code": "/min",
                    "system": "http://unitsofmeasure.org",
                    "unit": "per minute",
                    "value": 69
                },
                "resourceType": "Observation"
            }
        },
        {
            "request": {
                "method": "PUT",
                "url": "Observation/a1044d51-b9f8-40e8-a0f3-89bce2808acd"
            },
            "resource": {
                "id": "a1044d51-b9f8-40e8-a0f3-89bce2808acd",
                "meta": {
                    "profile": [
                        "https://www.netzwerk-universitaetsmedizin.de/fhir/StructureDefinition/respiratory-rate"
                    ]
                },
                "category": [
                    {
                        "coding": [
                            {
                                "code": "vital-signs",
                                "system": "http://terminology.hl7.org/CodeSystem/observation-category"
                            }
                        ]
                    }
                ],
                "code": {
                    "coding": [
                        {
                            "code": "9279-1",
                            "display": "Respiratory rate",
                            "system": "http://loinc.org"
                        },
                        {
                            "code": "86290005",
                            "display": "Respiratory rate (observable entity)",
                            "system": "http://snomed.info/sct"
                        }
                    ],
                    "text": "Respiratory rate"
                },
                "effectiveDateTime": "2020-11-17T10:51:05+01:00",
                "identifier": [
                    {
                        "assigner": {
                            "reference": "Organization/Charit\u00e9"
                        },
                        "system": "https://www.charite.de/fhir/CodeSystem/observation-identifiers",
                        "type": {
                            "coding": [
                                {
                                    "code": "OBI",
                                    "system": "http://terminology.hl7.org/CodeSystem/v2-0203"
                                }
                            ]
                        },
                        "value": "9279-1_RespiratoryRate"
                    }
                ],
                "status": "final",
                "subject": {
                    "reference": "Patient/80345e54-a523-478f-98b2-1412e5abb316"
                },
                "valueQuantity": {
                    "code": "/min",
                    "system": "http://unitsofmeasure.org",
                    "unit": "per minute",
                    "value": 23
                },
                "resourceType": "Observation"
            }
        },
        {
            "request": {
                "method": "PUT",
                "url": "Observation/e8e39744-68fe-4771-94d6-da55e6587092"
            },
            "resource": {
                "id": "e8e39744-68fe-4771-94d6-da55e6587092",
                "meta": {
                    "profile": [
                        "https://www.netzwerk-universitaetsmedizin.de/fhir/StructureDefinition/body-temperature"
                    ]
                },
                "category": [
                    {
                        "coding": [
                            {
                                "code": "vital-signs",
                                "system": "http://terminology.hl7.org/CodeSystem/observation-category"
                            }
                        ]
                    }
                ],
                "code": {
                    "coding": [
                        {
                            "code": "8310-5",
                            "display": "Body temperature",
                            "system": "http://loinc.org"
                        },
                        {
                            "code": "386725007",
                            "display": "Body temperature (observable entity)",
                            "system": "http://snomed.info/sct"
                        }
                    ],
                    "text": "Body temperature"
                },
                "effectiveDateTime": "2020-11-17T10:51:05+01:00",
                "identifier": [
                    {
                        "assigner": {
                            "reference": "Organization/Charit\u00e9"
                        },
                        "system": "https://www.charite.de/fhir/CodeSystem/observation-identifiers",
                        "type": {
                            "coding": [
                                {
                                    "code": "OBI",
                                    "system": "http://terminology.hl7.org/CodeSystem/v2-0203"
                                }
                            ]
                        },
                        "value": "8310-5_BodyTemperature"
                    }
                ],
                "status": "final",
                "subject": {
                    "reference": "Patient/80345e54-a523-478f-98b2-1412e5abb316"
                },
                "valueQuantity": {
                    "code": "Cel",
                    "system": "http://unitsofmeasure.org",
                    "unit": "\u00b0C",
                    "value": 36.53
                },
                "resourceType": "Observation"
            }
        }
    ],
    "timestamp": "2020-11-17T10:51:05+01:00",
    "type": "transaction",
    "resourceType": "Bundle"
}